Folder: DSC_correction/rawdata (part 10)

File: ww_7
H2O_H2O
Furnace temperature 	Time	HeatFlow
/°C	/s	/mW
64.80	0	-0.16
66.69	11	-0.18
67.84	21	-0.28
67.81	32	-0.40
67.82	42	-0.51
67.72	53	-0.61
67.61	63	-0.68
67.46	74	-0.73
67.30	84	-0.75
67.13	95	-0.75
66.95	105	-0.72
66.77	116	-0.69
66.58	126	-0.65
66.38	137	-0.62
66.18	147	-0.59
65.98	158	-0.55
65.90	168	-0.51
65.70	179	-0.47
65.51	189	-0.41
65.31	200	-0.36
65.11	210	-0.30
64.90	221	-0.25
64.68	231	-0.21
64.47	242	-0.15
64.26	252	-0.11
64.04	263	-0.06
63.82	273	-0.02
63.60	284	0.02
63.38	294	0.05
63.16	305	0.08
62.95	315	0.10
62.73	326	0.13
62.51	336	0.15
62.29	347	0.17
62.07	357	0.19
61.85	368	0.21
61.64	378	0.22
61.42	389	0.23
61.20	399	0.24
60.98	410	0.25
60.77	420	0.27
60.55	431	0.27
60.33	441	0.28
60.12	452	0.28
59.90	462	0.29
59.69	473	0.29
59.47	483	0.30
59.26	494	0.30
59.04	504	0.31
58.83	515	0.31
58.61	525	0.31
58.40	536	0.31
58.18	546	0.31
57.97	557	0.32
57.76	567	0.32
57.54	578	0.32
57.33	588	0.32
57.12	599	0.32
56.90	609	0.32
56.69	620	0.32
56.47	630	0.33
56.26	641	0.33
56.05	651	0.33
55.83	662	0.33
55.62	672	0.33
55.41	683	0.33
55.19	693	0.33
54.98	704	0.33
54.77	714	0.33
54.56	725	0.33
54.34	735	0.33
54.13	746	0.33
53.92	756	0.33
53.70	767	0.33
53.49	777	0.32
53.28	788	0.32
53.07	798	0.33
52.85	809	0.32
52.64	819	0.32
52.42	830	0.32
52.21	840	0.32
52.00	851	0.32
51.79	861	0.32
51.58	872	0.32
51.36	882	0.32
51.15	893	0.32
50.94	903	0.31
50.72	914	0.31
50.51	924	0.31
50.30	935	0.31
50.09	945	0.31
49.87	956	0.31
49.66	966	0.31
49.45	977	0.31
49.24	987	0.31
49.02	998	0.31
48.81	1008	0.31
48.60	1019	0.31
48.39	1029	0.31
48.17	1040	0.31
47.96	1050	0.31
47.75	1061	0.31
47.54	1071	0.30
47.32	1082	0.30
47.11	1092	0.30
46.90	1103	0.30
46.68	1113	0.30
46.47	1124	0.30
46.26	1134	0.30
46.05	1145	0.30
45.83	1155	0.30
45.62	1166	0.30
45.41	1176	0.29
45.20	1187	0.29
44.99	1197	0.29
44.77	1208	0.29
44.56	1218	0.29
44.35	1229	0.29
44.14	1239	0.29
43.92	1250	0.29
43.71	1260	0.29
43.50	1271	0.29
43.29	1281	0.28
43.07	1292	0.28
42.86	1302	0.28
42.65	1313	0.28
42.43	1323	0.28
42.22	1334	0.28
42.01	1344	0.28
41.80	1355	0.28
41.59	1365	0.28
41.37	1376	0.28
41.16	1386	0.28
40.95	1397	0.28
40.74	1407	0.28
40.52	1418	0.27
40.31	1428	0.27
40.10	1439	0.27
39.89	1449	0.27
39.67	1460	0.27
39.46	1470	0.27
39.25	1481	0.27
39.04	1491	0.27
38.82	1502	0.27
38.61	1512	0.27
38.40	1523	0.27
38.19	1533	0.26
37.97	1544	0.26
37.76	1554	0.27
37.55	1565	0.26
37.34	1575	0.27
37.12	1586	0.26
36.91	1596	0.26
36.70	1607	0.26
36.49	1617	0.26
36.27	1628	0.26
36.06	1638	0.26
35.85	1649	0.26
35.64	1659	0.26
35.43	1670	0.26
35.21	1680	0.26
35.00	1691	0.26
34.79	1701	0.26
34.58	1712	0.26
34.36	1722	0.26
34.15	1733	0.26
33.94	1743	0.26
33.73	1754	0.26
33.51	1764	0.26
33.30	1775	0.25
33.09	1785	0.25
32.88	1796	0.25
32.66	1806	0.25
32.45	1817	0.25
32.24	1827	0.25
32.03	1838	0.25
31.82	1848	0.25
31.60	1859	0.25
31.39	1869	0.25
31.18	1880	0.25
30.97	1890	0.25
30.75	1901	0.25
30.54	1911	0.25
30.33	1922	0.25
30.12	1932	0.25
29.90	1943	0.25
29.69	1953	0.25
29.48	1964	0.25
29.27	1974	0.25
29.06	1985	0.25
28.84	1995	0.25
28.63	2006	0.25
28.42	2016	0.25
28.21	2027	0.25
27.99	2037	0.25
27.78	2048	0.25
27.57	2058	0.25
27.36	2069	0.25
27.15	2079	0.25
26.93	2090	0.25
26.72	2100	0.25
26.51	2111	0.25
26.30	2121	0.25
26.08	2132	0.25
25.87	2142	0.25
25.66	2153	0.25
25.45	2163	0.25
25.24	2174	0.25
25.02	2184	0.24
24.81	2195	0.25
24.60	2205	0.24
24.39	2216	0.24
24.18	2226	0.25
23.97	2237	0.25
23.76	2247	0.24
23.55	2258	0.25
23.33	2268	0.24
23.12	2279	0.25
22.91	2289	0.24
22.70	2300	0.24
22.48	2310	0.25
22.27	2321	0.25
22.06	2331	0.25
21.85	2342	0.25
21.63	2352	0.24
21.42	2363	0.25
21.21	2373	0.24
21.00	2384	0.25
20.78	2394	0.25
20.57	2405	0.25
20.36	2415	0.25
20.15	2426	0.24
19.94	2436	0.24
19.72	2447	0.24
19.51	2457	0.23
19.30	2468	0.23
19.09	2478	0.23
18.88	2489	0.22
18.67	2499	0.22
18.45	2510	0.22
18.25	2520	0.22
18.04	2531	0.22
17.83	2541	0.21
17.62	2552	0.21
17.41	2562	0.21
17.19	2573	0.21
16.98	2583	0.20
16.77	2594	0.20
16.56	2604	0.20
16.35	2615	0.20
16.14	2625	0.20
15.92	2636	0.19
15.71	2646	0.19
15.50	2657	0.19
15.29	2667	0.18
15.08	2678	0.18
14.87	2688	0.18
14.66	2699	0.18
14.44	2709	0.17
14.23	2720	0.17
14.02	2730	0.17
13.81	2741	0.16
13.60	2751	0.16
13.39	2762	0.16
13.18	2772	0.16
12.97	2783	0.16
12.76	2793	0.16
12.55	2804	0.15
12.34	2814	0.15
12.13	2825	0.15
11.92	2835	0.15
11.71	2846	0.15
11.50	2856	0.15
11.29	2867	0.15
11.08	2877	0.15
10.87	2888	0.14
10.66	2898	0.15
10.45	2909	0.15
10.24	2919	0.15
10.04	2930	0.15
9.83	2940	0.15
9.63	2951	0.15
9.43	2961	0.15
9.22	2972	0.15
9.02	2982	0.15
8.82	2993	0.15
8.68	3000	0.15