Folder: DSC_correction/rawdata

Note: rawdata/Nuovo documento di testo.txt
ww
rif: 523.14 mg
sample: 534.35 mg

P85
rif: 523.14 mg H2O
sample: 530.6 mg (0.18594gP85+1.99736g H2O)

Note: README.md
# DSC_correction
Set of python scripts for the correction of DSC data. 

To run the program, please copy all the needed input files into the folder rawdata. Modify the two input files 'Files.txt' and 'Input_params.txt' according to your needs. To run the program, execute Correction1.py. 

A comprehensive description of the program will be provided soon. It normalizes the rawdata, corrects for the empty cell and buffer contributions, and performs a baseline subtraction.

File: empty_2
empty
Furnace temperature 	Time	HeatFlow
/°C	/s	/mW
7.70	0	-0.78
6.03	26	-0.71
5.27	51	-0.50
5.03	77	-0.31
4.99	102	-0.18
5.06	128	-0.07
5.19	153	0.02
5.10	179	0.10
5.18	204	0.16
5.37	230	0.21
5.60	255	0.25
5.86	281	0.28
6.12	306	0.30
6.37	332	0.31
6.63	357	0.32
6.88	383	0.32
7.12	408	0.32
7.36	434	0.33
7.59	459	0.33
7.83	485	0.33
8.06	510	0.33
8.28	536	0.33
8.50	561	0.33
8.73	587	0.33
8.95	612	0.33
9.17	638	0.33
9.38	663	0.33
9.60	689	0.33
9.82	714	0.33
10.04	740	0.33
10.25	765	0.33
10.47	791	0.33
10.69	816	0.32
10.90	842	0.32
11.12	867	0.32
11.34	893	0.32
11.55	918	0.32
11.77	944	0.32
11.98	969	0.32
12.20	995	0.31
12.41	1020	0.31
12.63	1046	0.31
12.85	1071	0.30
13.06	1097	0.30
13.28	1122	0.29
13.49	1148	0.29
13.71	1173	0.28
13.92	1199	0.27
14.14	1224	0.26
14.35	1250	0.26
14.57	1275	0.25
14.79	1301	0.24
15.00	1326	0.23
15.22	1352	0.22
15.43	1377	0.21
15.65	1403	0.21
15.86	1428	0.20
16.08	1454	0.19
16.29	1479	0.18
16.51	1505	0.17
16.72	1530	0.17
16.94	1556	0.16
17.15	1581	0.16
17.37	1607	0.15
17.58	1632	0.14
17.80	1658	0.13
18.01	1683	0.13
18.23	1709	0.12
18.44	1734	0.11
18.66	1760	0.11
18.88	1785	0.10
19.09	1811	0.10
19.31	1836	0.09
19.52	1862	0.08
19.74	1887	0.08
19.95	1913	0.07
20.17	1938	0.06
20.38	1964	0.06
20.60	1989	0.05
20.81	2015	0.04
21.03	2040	0.04
21.24	2066	0.03
21.46	2091	0.02
21.67	2117	0.01
21.89	2142	0.01
22.10	2168	0.00
22.32	2193	-0.01
22.53	2219	-0.02
22.75	2244	-0.02
22.96	2270	-0.03
23.18	2295	-0.04
23.39	2321	-0.05
23.61	2346	-0.05
23.82	2372	-0.06
24.04	2397	-0.07
24.25	2423	-0.08
24.47	2448	-0.09
24.68	2474	-0.09
24.90	2499	-0.10
25.11	2525	-0.11
25.33	2550	-0.12
25.54	2576	-0.13
25.76	2601	-0.14
25.98	2627	-0.15
26.19	2652	-0.16
26.40	2678	-0.17
26.62	2703	-0.18
26.84	2729	-0.19
27.05	2754	-0.20
27.27	2780	-0.21
27.48	2805	-0.22
27.70	2831	-0.23
27.91	2856	-0.24
28.13	2882	-0.25
28.34	2907	-0.26
28.56	2933	-0.27
28.77	2958	-0.28
28.99	2984	-0.29
29.20	3009	-0.30
29.42	3035	-0.31
29.63	3060	-0.32
29.85	3086	-0.34
30.06	3111	-0.35
30.28	3137	-0.36
30.49	3162	-0.37
30.71	3188	-0.38
30.93	3213	-0.39
31.14	3239	-0.40
31.35	3264	-0.42
31.57	3290	-0.43
31.78	3315	-0.44
32.00	3341	-0.45
32.21	3366	-0.47
32.43	3392	-0.48
32.64	3417	-0.49
32.86	3443	-0.51
33.07	3468	-0.52
33.29	3494	-0.53
33.50	3519	-0.55
33.72	3545	-0.56
33.93	3570	-0.57
34.15	3596	-0.58
34.36	3621	-0.60
34.58	3647	-0.61
34.79	3672	-0.63
35.01	3698	-0.64
35.23	3723	-0.65
35.45	3749	-0.67
35.67	3774	-0.68
35.88	3800	-0.69
36.08	3825	-0.71
36.30	3851	-0.72
36.52	3876	-0.73
36.73	3902	-0.74
36.95	3927	-0.75
37.16	3953	-0.77
37.38	3978	-0.77
37.59	4004	-0.78
37.81	4029	-0.78
38.02	4055	-0.78
38.24	4080	-0.76
38.45	4106	-0.71
38.66	4131	-0.60
38.88	4157	-0.42
39.10	4182	-0.24
39.31	4208	-0.11
39.53	4233	-0.01
39.74	4259	0.05
39.96	4284	0.09
40.18	4310	0.11
40.39	4335	0.13
40.60	4361	0.15
40.82	4386	0.16
41.03	4412	0.17
41.25	4437	0.18
41.46	4463	0.19
41.68	4488	0.19
41.90	4514	0.20
42.11	4539	0.20
42.33	4565	0.21
42.54	4590	0.21
42.75	4616	0.22
42.97	4641	0.22
43.18	4667	0.22
43.40	4692	0.22
43.61	4718	0.23
43.83	4743	0.23
44.04	4769	0.23
44.26	4794	0.23
44.47	4820	0.23
44.69	4845	0.24
44.90	4871	0.24
45.12	4896	0.24
45.33	4922	0.24
45.55	4947	0.24
45.77	4973	0.24
45.98	4998	0.24
46.20	5024	0.24
46.41	5049	0.24
46.62	5075	0.24
46.84	5100	0.24
47.06	5126	0.24
47.27	5151	0.24
47.49	5177	0.24
47.70	5202	0.24
47.91	5228	0.25
48.13	5253	0.25
48.35	5279	0.25
48.56	5304	0.24
48.77	5330	0.25
48.99	5355	0.25
49.21	5381	0.24
49.42	5406	0.25
49.63	5432	0.25
49.85	5457	0.25
50.07	5483	0.25
50.28	5508	0.25
50.50	5534	0.25
50.71	5559	0.25
50.93	5585	0.25
51.14	5610	0.25
51.36	5636	0.25
51.57	5661	0.25
51.79	5687	0.25
52.00	5712	0.25
52.21	5738	0.25
52.43	5763	0.25
52.65	5789	0.25
52.86	5814	0.25
53.08	5840	0.25
53.29	5865	0.25
53.51	5891	0.25
53.72	5916	0.25
53.94	5942	0.25
54.15	5967	0.25
54.37	5993	0.24
54.58	6018	0.25
54.80	6044	0.25
55.01	6069	0.25
55.23	6095	0.25
55.44	6120	0.25
55.66	6146	0.25
55.87	6171	0.25
56.09	6197	0.25
56.30	6222	0.24
56.52	6248	0.24
56.73	6273	0.24
56.95	6299	0.25
57.16	6324	0.24
57.38	6350	0.24
57.59	6375	0.24
57.81	6401	0.24
58.02	6426	0.24
58.24	6452	0.24
58.45	6477	0.24
58.67	6503	0.24
58.88	6528	0.24
59.10	6554	0.24
59.31	6579	0.24
59.53	6605	0.24
59.74	6630	0.24
59.96	6656	0.24
60.17	6681	0.24
60.39	6707	0.24
60.60	6732	0.24
60.82	6758	0.24
61.03	6783	0.24
61.25	6809	0.24
61.47	6834	0.24
61.68	6860	0.24
61.89	6885	0.24
62.11	6911	0.23
62.32	6936	0.23
62.54	6962	0.23
62.76	6987	0.23
62.97	7013	0.23
63.18	7038	0.23
63.40	7064	0.23
63.61	7089	0.23
63.83	7115	0.23
64.05	7140	0.23
64.26	7166	0.23
64.47	7191	0.23
64.55	7200	0.23

File: empty_3
empty
Furnace temperature 	Time	HeatFlow
/°C	/s	/mW
64.81	0	0.23
66.75	11	0.21
67.89	21	0.12
67.82	32	0.01
67.84	42	-0.06
67.73	53	-0.10
67.61	63	-0.12
67.47	74	-0.12
67.31	84	-0.12
67.14	95	-0.12
66.96	105	-0.12
66.77	116	-0.13
66.58	126	-0.14
66.38	137	-0.16
66.19	147	-0.18
65.98	158	-0.21
65.90	168	-0.23
65.69	179	-0.27
65.51	189	-0.30
65.31	200	-0.33
65.10	210	-0.36
64.90	221	-0.39
64.68	231	-0.41
64.47	242	-0.44
64.25	252	-0.47
64.03	263	-0.49
63.81	273	-0.51
63.60	284	-0.54
63.38	294	-0.56
63.16	305	-0.58
62.94	315	-0.60
62.72	326	-0.61
62.51	336	-0.63
62.29	347	-0.65
62.07	357	-0.66
61.85	368	-0.67
61.63	378	-0.68
61.41	389	-0.69
61.20	399	-0.70
60.98	410	-0.71
60.77	420	-0.71
60.55	431	-0.71
60.33	441	-0.72
60.11	452	-0.72
59.90	462	-0.73
59.68	473	-0.73
59.47	483	-0.73
59.26	494	-0.73
59.04	504	-0.73
58.83	515	-0.73
58.61	525	-0.74
58.40	536	-0.74
58.19	546	-0.74
57.97	557	-0.73
57.76	567	-0.74
57.54	578	-0.74
57.33	588	-0.74
57.12	599	-0.74
56.90	609	-0.74
56.69	620	-0.74
56.48	630	-0.74
56.26	641	-0.74
56.05	651	-0.74
55.84	662	-0.74
55.62	672	-0.74
55.41	683	-0.74
55.20	693	-0.74
54.99	704	-0.74
54.77	714	-0.74
54.56	725	-0.74
54.35	735	-0.74
54.13	746	-0.74
53.92	756	-0.74
53.71	767	-0.74
53.50	777	-0.74
53.28	788	-0.74
53.07	798	-0.74
52.86	809	-0.75
52.64	819	-0.74
52.43	830	-0.74
52.22	840	-0.74
52.01	851	-0.74
51.79	861	-0.74
51.58	872	-0.74
51.37	882	-0.74
51.16	893	-0.74
50.94	903	-0.75
50.73	914	-0.75
50.52	924	-0.75
50.30	935	-0.75
50.09	945	-0.75
49.88	956	-0.75
49.67	966	-0.75
49.45	977	-0.75
49.24	987	-0.75
49.03	998	-0.75
48.82	1008	-0.75
48.60	1019	-0.75
48.39	1029	-0.76
48.18	1040	-0.75
47.97	1050	-0.76
47.75	1061	-0.76
47.54	1071	-0.76
47.33	1082	-0.76
47.12	1092	-0.76
46.90	1103	-0.76
46.69	1113	-0.76
46.48	1124	-0.77
46.27	1134	-0.77
46.05	1145	-0.77
45.84	1155	-0.77
45.63	1166	-0.77
45.42	1176	-0.77
45.20	1187	-0.78
44.99	1197	-0.78
44.78	1208	-0.77
44.56	1218	-0.78
44.35	1229	-0.78
44.14	1239	-0.78
43.93	1250	-0.78
43.71	1260	-0.78
43.50	1271	-0.78
43.29	1281	-0.79
43.08	1292	-0.79
42.86	1302	-0.79
42.64	1313	-0.79
42.43	1323	-0.79
42.22	1334	-0.79
42.01	1344	-0.79
41.79	1355	-0.79
41.59	1365	-0.79
41.37	1376	-0.79
41.16	1386	-0.80
40.95	1397	-0.80
40.73	1407	-0.80
40.52	1418	-0.80
40.31	1428	-0.80
40.10	1439	-0.80
39.88	1449	-0.81
39.67	1460	-0.81
39.46	1470	-0.81
39.25	1481	-0.81
39.04	1491	-0.81
38.82	1502	-0.81
38.61	1512	-0.81
38.40	1523	-0.82
38.19	1533	-0.82
37.97	1544	-0.82
37.76	1554	-0.82
37.55	1565	-0.82
37.34	1575	-0.82
37.13	1586	-0.82
36.92	1596	-0.83
36.70	1607	-0.83
36.49	1617	-0.83
36.28	1628	-0.83
36.06	1638	-0.83
35.85	1649	-0.83
35.64	1659	-0.83
35.42	1670	-0.84
35.21	1680	-0.84
35.00	1691	-0.84
34.78	1701	-0.84
34.57	1712	-0.84
34.36	1722	-0.84
34.15	1733	-0.84
33.94	1743	-0.85
33.72	1754	-0.84
33.51	1764	-0.85
33.30	1775	-0.85
33.08	1785	-0.85
32.87	1796	-0.85
32.66	1806	-0.85
32.45	1817	-0.85
32.24	1827	-0.85
32.02	1838	-0.86
31.81	1848	-0.86
31.60	1859	-0.86
31.39	1869	-0.86
31.18	1880	-0.86
30.96	1890	-0.86
30.75	1901	-0.86
30.54	1911	-0.86
30.33	1922	-0.86
30.11	1932	-0.87
29.90	1943	-0.87
29.69	1953	-0.87
29.48	1964	-0.87
29.27	1974	-0.87
29.05	1985	-0.87
28.84	1995	-0.87
28.63	2006	-0.87
28.42	2016	-0.88
28.20	2027	-0.88
27.99	2037	-0.88
27.78	2048	-0.88
27.57	2058	-0.88
27.35	2069	-0.88
27.14	2079	-0.88
26.93	2090	-0.89
26.72	2100	-0.89
26.51	2111	-0.89
26.29	2121	-0.89
26.08	2132	-0.89
25.87	2142	-0.89
25.66	2153	-0.89
25.45	2163	-0.90
25.23	2174	-0.90
25.02	2184	-0.90
24.81	2195	-0.90
24.60	2205	-0.90
24.38	2216	-0.90
24.17	2226	-0.91
23.96	2237	-0.91
23.75	2247	-0.91
23.54	2258	-0.91
23.32	2268	-0.91
23.11	2279	-0.91
22.90	2289	-0.91
22.69	2300	-0.91
22.47	2310	-0.91
22.26	2321	-0.91
22.05	2331	-0.92
21.84	2342	-0.92
21.63	2352	-0.92
21.41	2363	-0.92
21.20	2373	-0.92
20.99	2384	-0.92
20.78	2394	-0.92
20.57	2405	-0.92
20.35	2415	-0.92
20.14	2426	-0.92
19.93	2436	-0.93
19.72	2447	-0.93
19.51	2457	-0.93
19.29	2468	-0.93
19.08	2478	-0.93
18.87	2489	-0.93
18.66	2499	-0.93
18.45	2510	-0.93
18.24	2520	-0.93
18.02	2531	-0.93
17.81	2541	-0.93
17.60	2552	-0.93
17.39	2562	-0.93
17.18	2573	-0.93
16.96	2583	-0.93
16.75	2594	-0.93
16.54	2604	-0.93
16.33	2615	-0.93
16.11	2625	-0.93
15.90	2636	-0.94
15.69	2646	-0.94
15.48	2657	-0.94
15.27	2667	-0.94
15.06	2678	-0.94
14.85	2688	-0.94
14.64	2699	-0.94
14.43	2709	-0.94
14.22	2720	-0.94
14.01	2730	-0.94
13.80	2741	-0.95
13.59	2751	-0.95
13.38	2762	-0.95
13.17	2772	-0.95
12.96	2783	-0.95
12.75	2793	-0.95
12.54	2804	-0.95
12.33	2814	-0.95
12.12	2825	-0.95
11.91	2835	-0.95
11.70	2846	-0.95
11.49	2856	-0.95
11.28	2867	-0.95
11.07	2877	-0.96
10.86	2888	-0.96
10.64	2898	-0.95
10.43	2909	-0.95
10.23	2919	-0.95
10.02	2930	-0.95
9.81	2940	-0.95
9.60	2951	-0.95
9.39	2961	-0.95
9.18	2972	-0.94
8.98	2982	-0.94
8.77	2993	-0.93
8.63	3000	-0.93

File: empty_4
empty
Furnace temperature 	Time	HeatFlow
/°C	/s	/mW
8.24	0	-0.92
7.71	26	-0.91
6.84	51	-0.84
6.08	77	-0.67
5.69	102	-0.50
5.55	128	-0.39
5.55	153	-0.29
5.30	179	-0.18
5.01	204	-0.07
5.05	230	0.03
5.27	255	0.12
5.56	281	0.19
5.86	306	0.25
6.16	332	0.29
6.45	357	0.32
6.73	383	0.34
7.00	408	0.35
7.26	434	0.35
7.52	459	0.35
7.76	485	0.35
8.00	510	0.35
8.24	536	0.35
8.47	561	0.35
8.70	587	0.35
8.93	612	0.34
9.15	638	0.34
9.37	663	0.34
9.59	689	0.34
9.81	714	0.34
10.03	740	0.34
10.25	765	0.34
10.47	791	0.33
10.68	816	0.33
10.90	842	0.33
11.12	867	0.33
11.33	893	0.33
11.55	918	0.33
11.76	944	0.33
11.98	969	0.33
12.20	995	0.33
12.41	1020	0.33
12.63	1046	0.32
12.84	1071	0.32
13.06	1097	0.32
13.27	1122	0.32
13.49	1148	0.33
13.71	1173	0.32
13.92	1199	0.32
14.14	1224	0.32
14.35	1250	0.32
14.57	1275	0.32
14.78	1301	0.33
15.00	1326	0.32
15.21	1352	0.32
15.43	1377	0.32
15.64	1403	0.32
15.86	1428	0.32
16.07	1454	0.32
16.29	1479	0.32
16.51	1505	0.32
16.72	1530	0.32
16.94	1556	0.32
17.15	1581	0.32
17.37	1607	0.32
17.58	1632	0.32
17.80	1658	0.32
18.01	1683	0.32
18.23	1709	0.32
18.44	1734	0.32
18.66	1760	0.32
18.87	1785	0.32
19.09	1811	0.32
19.30	1836	0.32
19.52	1862	0.32
19.73	1887	0.32
19.95	1913	0.32
20.16	1938	0.32
20.38	1964	0.32
20.59	1989	0.32
20.81	2015	0.32
21.02	2040	0.32
21.24	2066	0.32
21.46	2091	0.32
21.67	2117	0.31
21.89	2142	0.31
22.10	2168	0.31
22.32	2193	0.31
22.53	2219	0.31
22.75	2244	0.31
22.96	2270	0.31
23.18	2295	0.31
23.39	2321	0.31
23.61	2346	0.31
23.82	2372	0.31
24.04	2397	0.31
24.25	2423	0.31
24.47	2448	0.31
24.68	2474	0.31
24.90	2499	0.31
25.11	2525	0.31
25.33	2550	0.31
25.54	2576	0.31
25.76	2601	0.31
25.97	2627	0.31
26.19	2652	0.30
26.40	2678	0.30
26.62	2703	0.30
26.84	2729	0.30
27.05	2754	0.30
27.27	2780	0.30
27.48	2805	0.30
27.70	2831	0.30
27.91	2856	0.30
28.13	2882	0.30
28.34	2907	0.30
28.56	2933	0.30
28.77	2958	0.30
28.99	2984	0.30
29.20	3009	0.30
29.42	3035	0.30
29.63	3060	0.29
29.85	3086	0.29
30.06	3111	0.29
30.28	3137	0.29
30.49	3162	0.29
30.71	3188	0.29
30.92	3213	0.29
31.14	3239	0.29
31.35	3264	0.29
31.57	3290	0.29
31.78	3315	0.29
32.00	3341	0.29
32.21	3366	0.29
32.43	3392	0.29
32.64	3417	0.28
32.86	3443	0.28
33.07	3468	0.28
33.29	3494	0.28
33.50	3519	0.28
33.72	3545	0.28
33.93	3570	0.28
34.15	3596	0.28
34.36	3621	0.28
34.58	3647	0.28
34.79	3672	0.28
35.01	3698	0.28
35.23	3723	0.28
35.44	3749	0.28
35.65	3774	0.28
35.87	3800	0.28
36.09	3825	0.27
36.30	3851	0.27
36.52	3876	0.27
36.73	3902	0.27
36.94	3927	0.27
37.16	3953	0.27
37.38	3978	0.27
37.59	4004	0.28
37.81	4029	0.27
38.02	4055	0.27
38.24	4080	0.27
38.45	4106	0.27
38.67	4131	0.27
38.89	4157	0.27
39.11	4182	0.27
39.32	4208	0.27
39.53	4233	0.26
39.75	4259	0.26
39.96	4284	0.27
40.17	4310	0.27
40.39	4335	0.26
40.61	4361	0.26
40.82	4386	0.26
41.04	4412	0.26
41.25	4437	0.26
41.46	4463	0.26
41.68	4488	0.26
41.89	4514	0.26
42.11	4539	0.26
42.32	4565	0.26
42.54	4590	0.26
42.75	4616	0.26
42.97	4641	0.26
43.18	4667	0.26
43.40	4692	0.26
43.61	4718	0.26
43.83	4743	0.26
44.04	4769	0.26
44.26	4794	0.26
44.47	4820	0.26
44.69	4845	0.26
44.90	4871	0.26
45.12	4896	0.26
45.33	4922	0.26
45.55	4947	0.26
45.76	4973	0.26
45.98	4998	0.26
46.19	5024	0.26
46.41	5049	0.26
46.62	5075	0.26
46.84	5100	0.26
47.06	5126	0.26
47.27	5151	0.26
47.48	5177	0.26
47.70	5202	0.26
47.91	5228	0.26
48.13	5253	0.26
48.35	5279	0.26
48.56	5304	0.26
48.78	5330	0.26
48.99	5355	0.26
49.21	5381	0.26
49.42	5406	0.26
49.64	5432	0.26
49.85	5457	0.26
50.06	5483	0.26
50.28	5508	0.26
50.50	5534	0.26
50.71	5559	0.26
50.93	5585	0.26
51.14	5610	0.26
51.36	5636	0.26
51.57	5661	0.26
51.78	5687	0.26
52.00	5712	0.26
52.22	5738	0.26
52.43	5763	0.26
52.65	5789	0.26
52.86	5814	0.26
53.08	5840	0.26
53.29	5865	0.26
53.51	5891	0.26
53.72	5916	0.26
53.94	5942	0.26
54.15	5967	0.25
54.37	5993	0.25
54.58	6018	0.25
54.80	6044	0.25
55.01	6069	0.25
55.23	6095	0.25
55.44	6120	0.25
55.66	6146	0.25
55.87	6171	0.25
56.09	6197	0.25
56.30	6222	0.25
56.52	6248	0.25
56.73	6273	0.25
56.95	6299	0.25
57.16	6324	0.25
57.38	6350	0.25
57.59	6375	0.25
57.81	6401	0.25
58.02	6426	0.25
58.24	6452	0.24
58.45	6477	0.25
58.67	6503	0.24
58.89	6528	0.24
59.10	6554	0.24
59.31	6579	0.24
59.53	6605	0.23
59.74	6630	0.24
59.96	6656	0.24
60.17	6681	0.24
60.39	6707	0.23
60.60	6732	0.23
60.82	6758	0.23
61.03	6783	0.23
61.25	6809	0.23
61.46	6834	0.23
61.68	6860	0.23
61.89	6885	0.23
62.11	6911	0.23
62.32	6936	0.23
62.54	6962	0.23
62.75	6987	0.23
62.97	7013	0.23
63.18	7038	0.23
63.40	7064	0.23
63.61	7089	0.23
63.83	7115	0.23
64.04	7140	0.23
64.26	7166	0.22
64.47	7191	0.23
64.55	7200	0.23

File: empty_5
empty
Furnace temperature 	Time	HeatFlow
/°C	/s	/mW
64.80	0	0.23
66.79	11	0.21
67.90	21	0.11
67.85	32	0.01
67.85	42	-0.06
67.75	53	-0.09
67.62	63	-0.11
67.48	74	-0.10
67.32	84	-0.10
67.14	95	-0.09
66.96	105	-0.09
66.78	116	-0.09
66.58	126	-0.10
66.39	137	-0.12
66.19	147	-0.14
65.99	158	-0.16
65.90	168	-0.19
65.69	179	-0.22
65.50	189	-0.26
65.31	200	-0.29
65.10	210	-0.32
64.89	221	-0.35
64.68	231	-0.38
64.46	242	-0.40
64.25	252	-0.43
64.03	263	-0.45
63.81	273	-0.48
63.59	284	-0.50
63.38	294	-0.52
63.16	305	-0.55
62.94	315	-0.56
62.72	326	-0.58
62.51	336	-0.59
62.29	347	-0.61
62.07	357	-0.62
61.85	368	-0.63
61.63	378	-0.65
61.42	389	-0.65
61.20	399	-0.66
60.98	410	-0.67
60.77	420	-0.67
60.55	431	-0.68
60.33	441	-0.68
60.12	452	-0.68
59.90	462	-0.69
59.69	473	-0.69
59.47	483	-0.69
59.26	494	-0.69
59.05	504	-0.69
58.83	515	-0.70
58.62	525	-0.69
58.40	536	-0.70
58.19	546	-0.70
57.97	557	-0.70
57.76	567	-0.70
57.54	578	-0.69
57.33	588	-0.69
57.12	599	-0.70
56.90	609	-0.70
56.69	620	-0.70
56.48	630	-0.70
56.26	641	-0.70
56.05	651	-0.70
55.84	662	-0.70
55.62	672	-0.70
55.41	683	-0.70
55.20	693	-0.70
54.98	704	-0.70
54.77	714	-0.70
54.56	725	-0.70
54.35	735	-0.70
54.13	746	-0.70
53.92	756	-0.70
53.71	767	-0.70
53.49	777	-0.70
53.28	788	-0.71
53.07	798	-0.71
52.86	809	-0.71
52.64	819	-0.71
52.43	830	-0.71
52.22	840	-0.70
52.01	851	-0.71
51.79	861	-0.71
51.58	872	-0.71
51.37	882	-0.71
51.15	893	-0.71
50.94	903	-0.72
50.73	914	-0.72
50.52	924	-0.71
50.30	935	-0.72
50.09	945	-0.72
49.88	956	-0.72
49.67	966	-0.72
49.45	977	-0.72
49.24	987	-0.73
49.03	998	-0.73
48.81	1008	-0.73
48.60	1019	-0.73
48.39	1029	-0.73
48.18	1040	-0.73
47.96	1050	-0.73
47.75	1061	-0.73
47.54	1071	-0.74
47.33	1082	-0.74
47.11	1092	-0.74
46.90	1103	-0.74
46.69	1113	-0.74
46.48	1124	-0.74
46.27	1134	-0.74
46.05	1145	-0.75
45.84	1155	-0.75
45.63	1166	-0.75
45.42	1176	-0.75
45.20	1187	-0.75
44.99	1197	-0.75
44.78	1208	-0.75
44.57	1218	-0.75
44.35	1229	-0.76
44.14	1239	-0.76
43.93	1250	-0.76
43.71	1260	-0.76
43.50	1271	-0.77
43.29	1281	-0.76
43.08	1292	-0.77
42.86	1302	-0.77
42.65	1313	-0.77
42.44	1323	-0.77
42.23	1334	-0.78
42.01	1344	-0.78
41.80	1355	-0.78
41.59	1365	-0.78
41.38	1376	-0.78
41.16	1386	-0.78
40.95	1397	-0.78
40.74	1407	-0.79
40.52	1418	-0.78
40.31	1428	-0.79
40.10	1439	-0.79
39.89	1449	-0.79
39.68	1460	-0.79
39.46	1470	-0.80
39.25	1481	-0.80
39.04	1491	-0.80
38.82	1502	-0.80
38.61	1512	-0.80
38.40	1523	-0.80
38.19	1533	-0.80
37.98	1544	-0.81
37.76	1554	-0.81
37.55	1565	-0.81
37.34	1575	-0.81
37.12	1586	-0.81
36.91	1596	-0.81
36.70	1607	-0.81
36.49	1617	-0.82
36.28	1628	-0.82
36.06	1638	-0.82
35.85	1649	-0.83
35.64	1659	-0.83
35.43	1670	-0.83
35.21	1680	-0.83
35.00	1691	-0.83
34.79	1701	-0.83
34.58	1712	-0.83
34.36	1722	-0.83
34.15	1733	-0.83
33.94	1743	-0.83
33.73	1754	-0.84
33.52	1764	-0.84
33.30	1775	-0.84
33.09	1785	-0.84
32.87	1796	-0.84
32.65	1806	-0.85
32.44	1817	-0.85
32.23	1827	-0.85
32.01	1838	-0.85
31.80	1848	-0.85
31.59	1859	-0.85
31.38	1869	-0.85
31.17	1880	-0.86
30.96	1890	-0.86
30.75	1901	-0.86
30.53	1911	-0.85
30.32	1922	-0.85
30.11	1932	-0.86
29.90	1943	-0.86
29.68	1953	-0.86
29.47	1964	-0.86
29.26	1974	-0.87
29.05	1985	-0.87
28.84	1995	-0.87
28.63	2006	-0.87
28.41	2016	-0.87
28.20	2027	-0.88
27.99	2037	-0.88
27.78	2048	-0.88
27.57	2058	-0.88
27.35	2069	-0.88
27.14	2079	-0.88
26.93	2090	-0.88
26.72	2100	-0.88
26.51	2111	-0.88
26.29	2121	-0.89
26.08	2132	-0.89
25.87	2142	-0.89
25.66	2153	-0.89
25.44	2163	-0.89
25.23	2174	-0.90
25.02	2184	-0.90
24.81	2195	-0.90
24.59	2205	-0.90
24.38	2216	-0.90
24.17	2226	-0.90
23.96	2237	-0.90
23.75	2247	-0.90
23.53	2258	-0.91
23.32	2268	-0.91
23.11	2279	-0.91
22.90	2289	-0.91
22.69	2300	-0.91
22.48	2310	-0.91
22.26	2321	-0.92
22.05	2331	-0.91
21.84	2342	-0.92
21.63	2352	-0.91
21.41	2363	-0.92
21.20	2373	-0.92
20.99	2384	-0.92
20.78	2394	-0.92
20.57	2405	-0.92
20.35	2415	-0.92
20.14	2426	-0.93
19.93	2436	-0.92
19.72	2447	-0.93
19.51	2457	-0.93
19.29	2468	-0.93
19.08	2478	-0.93
18.87	2489	-0.93
18.66	2499	-0.93
18.45	2510	-0.93
18.23	2520	-0.94
18.02	2531	-0.94
17.81	2541	-0.94
17.60	2552	-0.94
17.39	2562	-0.94
17.18	2573	-0.94
16.96	2583	-0.94
16.75	2594	-0.94
16.54	2604	-0.94
16.33	2615	-0.94
16.12	2625	-0.95
15.91	2636	-0.95
15.70	2646	-0.95
15.48	2657	-0.95
15.27	2667	-0.95
15.06	2678	-0.95
14.85	2688	-0.95
14.64	2699	-0.95
14.43	2709	-0.95
14.22	2720	-0.95
14.00	2730	-0.96
13.79	2741	-0.96
13.58	2751	-0.96
13.37	2762	-0.96
13.16	2772	-0.96
12.95	2783	-0.96
12.74	2793	-0.96
12.53	2804	-0.96
12.32	2814	-0.96
12.11	2825	-0.96
11.90	2835	-0.96
11.69	2846	-0.96
11.48	2856	-0.96
11.27	2867	-0.96
11.06	2877	-0.96
10.85	2888	-0.96
10.64	2898	-0.97
10.43	2909	-0.96
10.22	2919	-0.96
10.01	2930	-0.96
9.80	2940	-0.96
9.60	2951	-0.96
9.39	2961	-0.95
9.18	2972	-0.95
8.97	2982	-0.94
8.77	2993	-0.93
8.63	3000	-0.93

File: empty_6
empty
Furnace temperature 	Time	HeatFlow
/°C	/s	/mW
8.08	0	-0.92
7.64	26	-0.91
6.84	51	-0.85
6.10	77	-0.69
5.71	102	-0.54
5.57	128	-0.43
5.57	153	-0.34
5.34	179	-0.24
5.04	204	-0.13
5.06	230	-0.02
5.28	255	0.08
5.56	281	0.16
5.86	306	0.23
6.16	332	0.27
6.45	357	0.31
6.73	383	0.33
7.00	408	0.34
7.26	434	0.35
7.52	459	0.35
7.76	485	0.35
8.00	510	0.35
8.24	536	0.35
8.47	561	0.35
8.70	587	0.35
8.92	612	0.35
9.15	638	0.35
9.37	663	0.35
9.59	689	0.34
9.81	714	0.34
10.03	740	0.34
10.25	765	0.34
10.47	791	0.34
10.68	816	0.34
10.90	842	0.34
11.12	867	0.34
11.33	893	0.34
11.55	918	0.34
11.76	944	0.34
11.98	969	0.34
12.20	995	0.34
12.41	1020	0.34
12.63	1046	0.34
12.84	1071	0.34
13.06	1097	0.34
13.27	1122	0.34
13.49	1148	0.34
13.71	1173	0.34
13.92	1199	0.34
14.14	1224	0.34
14.35	1250	0.33
14.57	1275	0.33
14.78	1301	0.33
15.00	1326	0.33
15.21	1352	0.33
15.43	1377	0.33
15.64	1403	0.33
15.86	1428	0.33
16.07	1454	0.33
16.29	1479	0.33
16.51	1505	0.33
16.72	1530	0.33
16.94	1556	0.33
17.15	1581	0.33
17.37	1607	0.33
17.58	1632	0.33
17.80	1658	0.33
18.01	1683	0.33
18.23	1709	0.33
18.44	1734	0.33
18.66	1760	0.33
18.87	1785	0.33
19.09	1811	0.33
19.30	1836	0.32
19.52	1862	0.32
19.73	1887	0.32
19.95	1913	0.32
20.16	1938	0.32
20.38	1964	0.32
20.60	1989	0.32
20.81	2015	0.32
21.02	2040	0.32
21.24	2066	0.32
21.46	2091	0.32
21.67	2117	0.32
21.89	2142	0.32
22.10	2168	0.32
22.32	2193	0.32
22.53	2219	0.32
22.75	2244	0.32
22.96	2270	0.32
23.18	2295	0.31
23.39	2321	0.31
23.61	2346	0.31
23.82	2372	0.31
24.04	2397	0.31
24.25	2423	0.31
24.47	2448	0.31
24.68	2474	0.31
24.90	2499	0.31
25.11	2525	0.31
25.33	2550	0.31
25.54	2576	0.31
25.76	2601	0.30
25.97	2627	0.30
26.19	2652	0.30
26.40	2678	0.30
26.62	2703	0.30
26.84	2729	0.30
27.05	2754	0.30
27.27	2780	0.30
27.48	2805	0.30
27.70	2831	0.30
27.91	2856	0.30
28.13	2882	0.30
28.34	2907	0.30
28.56	2933	0.29
28.77	2958	0.29
28.99	2984	0.29
29.20	3009	0.29
29.42	3035	0.29
29.63	3060	0.29
29.85	3086	0.29
30.06	3111	0.29
30.28	3137	0.29
30.49	3162	0.29
30.71	3188	0.29
30.92	3213	0.29
31.14	3239	0.28
31.35	3264	0.28
31.57	3290	0.28
31.78	3315	0.28
32.00	3341	0.28
32.21	3366	0.28
32.43	3392	0.28
32.64	3417	0.28
32.86	3443	0.28
33.07	3468	0.28
33.29	3494	0.28
33.50	3519	0.28
33.72	3545	0.28
33.93	3570	0.28
34.15	3596	0.28
34.36	3621	0.28
34.58	3647	0.27
34.79	3672	0.27
35.01	3698	0.27
35.22	3723	0.27
35.44	3749	0.27
35.65	3774	0.27
35.87	3800	0.27
36.08	3825	0.27
36.30	3851	0.27
36.52	3876	0.27
36.73	3902	0.27
36.95	3927	0.27
37.16	3953	0.27
37.38	3978	0.27
37.59	4004	0.27
37.81	4029	0.27
38.02	4055	0.27
38.24	4080	0.27
38.45	4106	0.27
38.67	4131	0.27
38.88	4157	0.26
39.10	4182	0.26
39.31	4208	0.26
39.53	4233	0.26
39.74	4259	0.26
39.97	4284	0.26
40.18	4310	0.26
40.40	4335	0.26
40.61	4361	0.26
40.82	4386	0.26
41.04	4412	0.26
41.25	4437	0.26
41.46	4463	0.25
41.68	4488	0.25
41.89	4514	0.25
42.11	4539	0.25
42.32	4565	0.25
42.54	4590	0.25
42.75	4616	0.25
42.97	4641	0.25
43.18	4667	0.25
43.40	4692	0.25
43.61	4718	0.25
43.83	4743	0.25
44.05	4769	0.25
44.26	4794	0.25
44.48	4820	0.25
44.69	4845	0.25
44.90	4871	0.25
45.12	4896	0.25
45.33	4922	0.25
45.55	4947	0.25
45.76	4973	0.25
45.98	4998	0.25
46.19	5024	0.25
46.41	5049	0.25
46.62	5075	0.25
46.84	5100	0.25
47.05	5126	0.25
47.27	5151	0.25
47.48	5177	0.25
47.70	5202	0.25
47.92	5228	0.25
48.13	5253	0.25
48.34	5279	0.25
48.56	5304	0.25
48.78	5330	0.25
48.99	5355	0.25
49.20	5381	0.25
49.42	5406	0.25
49.64	5432	0.25
49.85	5457	0.25
50.07	5483	0.25
50.28	5508	0.25
50.49	5534	0.25
50.71	5559	0.25
50.93	5585	0.25
51.14	5610	0.25
51.35	5636	0.25
51.57	5661	0.25
51.78	5687	0.25
52.00	5712	0.25
52.22	5738	0.25
52.43	5763	0.25
52.65	5789	0.25
52.86	5814	0.25
53.07	5840	0.25
53.29	5865	0.25
53.51	5891	0.25
53.72	5916	0.25
53.94	5942	0.25
54.16	5967	0.25
54.37	5993	0.25
54.58	6018	0.25
54.80	6044	0.25
55.01	6069	0.24
55.23	6095	0.24
55.44	6120	0.24
55.66	6146	0.24
55.87	6171	0.24
56.09	6197	0.24
56.30	6222	0.24
56.52	6248	0.24
56.73	6273	0.24
56.95	6299	0.24
57.16	6324	0.24
57.38	6350	0.24
57.59	6375	0.24
57.81	6401	0.24
58.02	6426	0.24
58.24	6452	0.24
58.45	6477	0.24
58.67	6503	0.23
58.88	6528	0.23
59.10	6554	0.23
59.32	6579	0.23
59.53	6605	0.23
59.75	6630	0.23
59.96	6656	0.23
60.17	6681	0.23
60.39	6707	0.23
60.60	6732	0.23
60.82	6758	0.23
61.03	6783	0.22
61.25	6809	0.22
61.46	6834	0.22
61.68	6860	0.22
61.89	6885	0.22
62.11	6911	0.22
62.32	6936	0.22
62.54	6962	0.22
62.75	6987	0.22
62.97	7013	0.22
63.18	7038	0.22
63.40	7064	0.22
63.61	7089	0.21
63.83	7115	0.22
64.05	7140	0.22
64.26	7166	0.21
64.47	7191	0.22
64.55	7200	0.22