Folder: DSC_correction/rawdata (part 2)

File: empty_7
empty
Furnace temperature 	Time	HeatFlow
/°C	/s	/mW
64.91	0	0.22
66.83	11	0.20
67.93	21	0.10
67.87	32	0.00
67.86	42	-0.06
67.75	53	-0.09
67.63	63	-0.10
67.48	74	-0.09
67.32	84	-0.08
67.15	95	-0.07
66.97	105	-0.07
66.78	116	-0.07
66.59	126	-0.07
66.39	137	-0.09
66.19	147	-0.11
65.99	158	-0.14
65.90	168	-0.17
65.69	179	-0.19
65.50	189	-0.22
65.31	200	-0.25
65.10	210	-0.29
64.89	221	-0.31
64.68	231	-0.34
64.47	242	-0.37
64.25	252	-0.39
64.04	263	-0.42
63.82	273	-0.44
63.60	284	-0.47
63.38	294	-0.48
63.16	305	-0.51
62.95	315	-0.52
62.73	326	-0.54
62.51	336	-0.56
62.29	347	-0.57
62.07	357	-0.59
61.85	368	-0.60
61.64	378	-0.61
61.42	389	-0.62
61.20	399	-0.63
60.99	410	-0.64
60.77	420	-0.64
60.55	431	-0.65
60.34	441	-0.65
60.12	452	-0.66
59.90	462	-0.66
59.69	473	-0.67
59.47	483	-0.67
59.26	494	-0.67
59.05	504	-0.67
58.83	515	-0.67
58.62	525	-0.67
58.40	536	-0.67
58.19	546	-0.68
57.97	557	-0.68
57.76	567	-0.67
57.55	578	-0.68
57.33	588	-0.68
57.12	599	-0.68
56.90	609	-0.68
56.69	620	-0.68
56.48	630	-0.68
56.26	641	-0.68
56.05	651	-0.68
55.84	662	-0.68
55.62	672	-0.68
55.41	683	-0.68
55.20	693	-0.68
54.98	704	-0.69
54.77	714	-0.68
54.56	725	-0.69
54.34	735	-0.69
54.13	746	-0.69
53.92	756	-0.69
53.71	767	-0.69
53.49	777	-0.69
53.28	788	-0.69
53.07	798	-0.69
52.86	809	-0.69
52.64	819	-0.69
52.43	830	-0.70
52.22	840	-0.70
52.00	851	-0.69
51.79	861	-0.69
51.58	872	-0.70
51.37	882	-0.70
51.15	893	-0.70
50.94	903	-0.70
50.73	914	-0.70
50.52	924	-0.70
50.30	935	-0.70
50.09	945	-0.71
49.88	956	-0.71
49.66	966	-0.71
49.45	977	-0.71
49.24	987	-0.71
49.03	998	-0.71
48.81	1008	-0.71
48.60	1019	-0.71
48.39	1029	-0.72
48.18	1040	-0.72
47.96	1050	-0.72
47.75	1061	-0.72
47.54	1071	-0.72
47.33	1082	-0.72
47.11	1092	-0.73
46.90	1103	-0.73
46.69	1113	-0.73
46.47	1124	-0.73
46.26	1134	-0.73
46.05	1145	-0.73
45.84	1155	-0.73
45.63	1166	-0.74
45.41	1176	-0.74
45.20	1187	-0.74
44.99	1197	-0.74
44.78	1208	-0.74
44.56	1218	-0.74
44.35	1229	-0.75
44.14	1239	-0.75
43.92	1250	-0.75
43.71	1260	-0.75
43.50	1271	-0.75
43.29	1281	-0.75
43.07	1292	-0.76
42.86	1302	-0.76
42.65	1313	-0.76
42.44	1323	-0.76
42.22	1334	-0.76
42.01	1344	-0.76
41.80	1355	-0.77
41.59	1365	-0.77
41.38	1376	-0.77
41.16	1386	-0.77
40.95	1397	-0.77
40.74	1407	-0.78
40.53	1418	-0.78
40.31	1428	-0.78
40.10	1439	-0.78
39.89	1449	-0.78
39.68	1460	-0.78
39.46	1470	-0.79
39.25	1481	-0.79
39.04	1491	-0.79
38.83	1502	-0.79
38.61	1512	-0.79
38.40	1523	-0.79
38.19	1533	-0.79
37.98	1544	-0.80
37.76	1554	-0.80
37.55	1565	-0.80
37.34	1575	-0.80
37.13	1586	-0.80
36.91	1596	-0.81
36.70	1607	-0.81
36.49	1617	-0.81
36.28	1628	-0.81
36.06	1638	-0.81
35.85	1649	-0.81
35.64	1659	-0.82
35.43	1670	-0.82
35.21	1680	-0.82
35.00	1691	-0.82
34.79	1701	-0.82
34.58	1712	-0.82
34.36	1722	-0.83
34.15	1733	-0.83
33.94	1743	-0.83
33.73	1754	-0.83
33.51	1764	-0.83
33.30	1775	-0.83
33.09	1785	-0.84
32.88	1796	-0.84
32.66	1806	-0.84
32.45	1817	-0.84
32.24	1827	-0.84
32.03	1838	-0.84
31.82	1848	-0.85
31.60	1859	-0.85
31.39	1869	-0.85
31.18	1880	-0.85
30.97	1890	-0.85
30.75	1901	-0.85
30.54	1911	-0.85
30.33	1922	-0.85
30.12	1932	-0.85
29.90	1943	-0.86
29.69	1953	-0.86
29.47	1964	-0.86
29.26	1974	-0.86
29.05	1985	-0.86
28.84	1995	-0.86
28.63	2006	-0.86
28.41	2016	-0.87
28.20	2027	-0.87
27.99	2037	-0.87
27.78	2048	-0.87
27.57	2058	-0.87
27.35	2069	-0.87
27.14	2079	-0.87
26.93	2090	-0.87
26.72	2100	-0.87
26.50	2111	-0.88
26.29	2121	-0.88
26.08	2132	-0.88
25.87	2142	-0.88
25.66	2153	-0.88
25.44	2163	-0.89
25.23	2174	-0.89
25.02	2184	-0.89
24.81	2195	-0.89
24.60	2205	-0.89
24.38	2216	-0.90
24.17	2226	-0.90
23.96	2237	-0.90
23.75	2247	-0.90
23.54	2258	-0.90
23.32	2268	-0.90
23.11	2279	-0.90
22.90	2289	-0.91
22.69	2300	-0.90
22.48	2310	-0.91
22.26	2321	-0.91
22.05	2331	-0.91
21.84	2342	-0.91
21.63	2352	-0.91
21.42	2363	-0.91
21.20	2373	-0.91
20.99	2384	-0.92
20.78	2394	-0.92
20.57	2405	-0.92
20.36	2415	-0.92
20.14	2426	-0.92
19.93	2436	-0.92
19.72	2447	-0.92
19.51	2457	-0.92
19.30	2468	-0.92
19.08	2478	-0.93
18.87	2489	-0.93
18.66	2499	-0.93
18.45	2510	-0.93
18.24	2520	-0.93
18.03	2531	-0.93
17.81	2541	-0.93
17.60	2552	-0.93
17.39	2562	-0.94
17.18	2573	-0.94
16.97	2583	-0.94
16.75	2594	-0.94
16.54	2604	-0.94
16.33	2615	-0.94
16.12	2625	-0.94
15.91	2636	-0.94
15.70	2646	-0.94
15.49	2657	-0.94
15.28	2667	-0.95
15.06	2678	-0.95
14.85	2688	-0.95
14.64	2699	-0.95
14.43	2709	-0.95
14.22	2720	-0.95
14.01	2730	-0.95
13.80	2741	-0.95
13.59	2751	-0.95
13.38	2762	-0.95
13.16	2772	-0.96
12.95	2783	-0.96
12.74	2793	-0.96
12.53	2804	-0.96
12.32	2814	-0.96
12.11	2825	-0.96
11.90	2835	-0.96
11.69	2846	-0.96
11.48	2856	-0.96
11.27	2867	-0.96
11.06	2877	-0.96
10.86	2888	-0.95
10.65	2898	-0.95
10.44	2909	-0.95
10.23	2919	-0.95
10.02	2930	-0.94
9.82	2940	-0.94
9.61	2951	-0.94
9.40	2961	-0.93
9.19	2972	-0.93
8.99	2982	-0.92
8.78	2993	-0.91
8.65	3000	-0.91

File: P85_2
P85
Furnace temperature 	Time	HeatFlow
/°C	/s	/mW
7.77	0	-0.99
6.17	26	-0.94
5.38	51	-0.72
5.10	77	-0.46
5.04	102	-0.22
5.10	128	-0.02
5.22	153	0.15
5.11	179	0.27
5.17	204	0.36
5.35	230	0.42
5.58	255	0.46
5.83	281	0.48
6.09	306	0.49
6.35	332	0.50
6.61	357	0.50
6.86	383	0.49
7.11	408	0.49
7.35	434	0.48
7.58	459	0.47
7.82	485	0.47
8.05	510	0.46
8.27	536	0.46
8.50	561	0.45
8.72	587	0.45
8.94	612	0.45
9.16	638	0.44
9.38	663	0.44
9.60	689	0.44
9.82	714	0.43
10.04	740	0.43
10.25	765	0.43
10.47	791	0.43
10.69	816	0.42
10.90	842	0.42
11.12	867	0.42
11.34	893	0.41
11.55	918	0.41
11.77	944	0.41
11.98	969	0.41
12.20	995	0.41
12.42	1020	0.40
12.63	1046	0.40
12.85	1071	0.40
13.06	1097	0.40
13.28	1122	0.39
13.49	1148	0.39
13.71	1173	0.39
13.92	1199	0.38
14.14	1224	0.38
14.35	1250	0.38
14.57	1275	0.38
14.79	1301	0.37
15.00	1326	0.37
15.22	1352	0.37
15.43	1377	0.36
15.65	1403	0.36
15.86	1428	0.36
16.08	1454	0.36
16.29	1479	0.35
16.51	1505	0.35
16.72	1530	0.35
16.94	1556	0.34
17.15	1581	0.34
17.37	1607	0.34
17.58	1632	0.33
17.80	1658	0.33
18.01	1683	0.33
18.23	1709	0.32
18.44	1734	0.32
18.66	1760	0.32
18.88	1785	0.32
19.09	1811	0.31
19.31	1836	0.31
19.52	1862	0.30
19.73	1887	0.30
19.95	1913	0.30
20.17	1938	0.29
20.38	1964	0.29
20.60	1989	0.28
20.81	2015	0.27
21.03	2040	0.26
21.24	2066	0.25
21.46	2091	0.23
21.67	2117	0.22
21.89	2142	0.20
22.10	2168	0.18
22.32	2193	0.15
22.53	2219	0.11
22.75	2244	0.07
22.96	2270	0.01
23.18	2295	-0.05
23.39	2321	-0.12
23.61	2346	-0.21
23.82	2372	-0.31
24.04	2397	-0.42
24.25	2423	-0.55
24.47	2448	-0.69
24.68	2474	-0.84
24.90	2499	-0.99
25.11	2525	-1.14
25.33	2550	-1.27
25.54	2576	-1.40
25.76	2601	-1.50
25.98	2627	-1.59
26.19	2652	-1.66
26.41	2678	-1.72
26.62	2703	-1.76
26.84	2729	-1.78
27.05	2754	-1.80
27.27	2780	-1.80
27.48	2805	-1.79
27.70	2831	-1.77
27.91	2856	-1.74
28.13	2882	-1.71
28.34	2907	-1.68
28.56	2933	-1.63
28.77	2958	-1.59
28.99	2984	-1.54
29.20	3009	-1.49
29.42	3035	-1.44
29.63	3060	-1.38
29.85	3086	-1.33
30.06	3111	-1.27
30.28	3137	-1.22
30.49	3162	-1.16
30.71	3188	-1.11
30.92	3213	-1.05
31.14	3239	-1.00
31.35	3264	-0.94
31.57	3290	-0.89
31.78	3315	-0.84
32.00	3341	-0.79
32.21	3366	-0.74
32.43	3392	-0.70
32.64	3417	-0.65
32.86	3443	-0.61
33.07	3468	-0.56
33.29	3494	-0.52
33.50	3519	-0.48
33.72	3545	-0.44
33.93	3570	-0.40
34.15	3596	-0.37
34.36	3621	-0.34
34.58	3647	-0.30
34.80	3672	-0.27
35.01	3698	-0.24
35.23	3723	-0.21
35.44	3749	-0.18
35.66	3774	-0.16
35.87	3800	-0.13
36.08	3825	-0.11
36.30	3851	-0.08
36.52	3876	-0.06
36.73	3902	-0.04
36.95	3927	-0.02
37.16	3953	0.00
37.38	3978	0.02
37.59	4004	0.04
37.81	4029	0.05
38.02	4055	0.07
38.24	4080	0.08
38.45	4106	0.10
38.67	4131	0.11
38.88	4157	0.13
39.10	4182	0.14
39.31	4208	0.15
39.53	4233	0.16
39.74	4259	0.17
39.96	4284	0.18
40.17	4310	0.19
40.39	4335	0.20
40.60	4361	0.21
40.82	4386	0.22
41.03	4412	0.23
41.25	4437	0.23
41.46	4463	0.24
41.68	4488	0.25
41.89	4514	0.26
42.11	4539	0.26
42.32	4565	0.27
42.54	4590	0.27
42.75	4616	0.28
42.97	4641	0.29
43.18	4667	0.29
43.40	4692	0.30
43.61	4718	0.30
43.83	4743	0.31
44.04	4769	0.31
44.26	4794	0.31
44.47	4820	0.32
44.69	4845	0.32
44.91	4871	0.32
45.12	4896	0.33
45.34	4922	0.33
45.55	4947	0.33
45.77	4973	0.34
45.98	4998	0.34
46.20	5024	0.34
46.41	5049	0.35
46.63	5075	0.35
46.84	5100	0.35
47.06	5126	0.36
47.27	5151	0.36
47.49	5177	0.36
47.70	5202	0.36
47.92	5228	0.36
48.13	5253	0.37
48.35	5279	0.37
48.56	5304	0.37
48.78	5330	0.37
48.99	5355	0.37
49.21	5381	0.38
49.42	5406	0.38
49.64	5432	0.38
49.85	5457	0.38
50.07	5483	0.38
50.28	5508	0.38
50.50	5534	0.39
50.71	5559	0.39
50.93	5585	0.39
51.14	5610	0.39
51.36	5636	0.39
51.57	5661	0.40
51.79	5687	0.40
52.00	5712	0.40
52.22	5738	0.40
52.43	5763	0.40
52.65	5789	0.40
52.87	5814	0.40
53.09	5840	0.40
53.30	5865	0.40
53.51	5891	0.39
53.73	5916	0.40
53.94	5942	0.40
54.15	5967	0.41
54.37	5993	0.41
54.58	6018	0.41
54.79	6044	0.41
55.00	6069	0.42
55.22	6095	0.42
55.44	6120	0.42
55.65	6146	0.42
55.87	6171	0.42
56.08	6197	0.41
56.31	6222	0.41
56.53	6248	0.42
56.74	6273	0.42
56.95	6299	0.42
57.17	6324	0.42
57.38	6350	0.42
57.60	6375	0.42
57.81	6401	0.42
58.03	6426	0.42
58.24	6452	0.42
58.45	6477	0.42
58.67	6503	0.42
58.88	6528	0.42
59.10	6554	0.42
59.31	6579	0.42
59.53	6605	0.43
59.74	6630	0.42
59.96	6656	0.42
60.17	6681	0.42
60.39	6707	0.42
60.60	6732	0.42
60.82	6758	0.42
61.03	6783	0.41
61.25	6809	0.41
61.46	6834	0.40
61.68	6860	0.40
61.89	6885	0.40
62.11	6911	0.39
62.32	6936	0.39
62.54	6962	0.38
62.75	6987	0.38
62.97	7013	0.38
63.18	7038	0.38
63.40	7064	0.38
63.61	7089	0.38
63.83	7115	0.38
64.04	7140	0.38
64.26	7166	0.38
64.47	7191	0.38
64.55	7200	0.38

File: P85_3
P85
Furnace temperature 	Time	HeatFlow
/°C	/s	/mW
64.97	0	0.38
66.82	11	0.36
67.89	21	0.26
67.85	32	0.11
67.85	42	-0.04
67.75	53	-0.21
67.62	63	-0.37
67.48	74	-0.50
67.32	84	-0.62
67.15	95	-0.71
66.96	105	-0.78
66.78	116	-0.84
66.59	126	-0.89
66.39	137	-0.96
66.19	147	-1.02
65.99	158	-1.08
65.90	168	-1.11
65.70	179	-1.13
65.51	189	-1.14
65.31	200	-1.13
65.10	210	-1.12
64.90	221	-1.10
64.68	231	-1.08
64.47	242	-1.06
64.25	252	-1.03
64.04	263	-1.02
63.82	273	-1.00
63.60	284	-0.99
63.38	294	-0.98
63.16	305	-0.97
62.95	315	-0.96
62.73	326	-0.95
62.51	336	-0.95
62.29	347	-0.95
62.07	357	-0.96
61.85	368	-0.97
61.64	378	-0.98
61.42	389	-0.98
61.20	399	-1.00
60.98	410	-1.01
60.77	420	-1.02
60.55	431	-1.03
60.34	441	-1.03
60.12	452	-1.04
59.90	462	-1.05
59.69	473	-1.06
59.47	483	-1.06
59.26	494	-1.07
59.04	504	-1.07
58.83	515	-1.08
58.61	525	-1.08
58.40	536	-1.08
58.18	546	-1.08
57.97	557	-1.09
57.76	567	-1.09
57.54	578	-1.09
57.33	588	-1.09
57.12	599	-1.09
56.90	609	-1.09
56.69	620	-1.09
56.47	630	-1.09
56.26	641	-1.09
56.05	651	-1.09
55.83	662	-1.09
55.62	672	-1.09
55.41	683	-1.09
55.19	693	-1.09
54.98	704	-1.08
54.77	714	-1.08
54.55	725	-1.08
54.34	735	-1.08
54.13	746	-1.08
53.92	756	-1.08
53.70	767	-1.08
53.49	777	-1.07
53.28	788	-1.07
53.06	798	-1.07
52.85	809	-1.07
52.64	819	-1.07
52.43	830	-1.07
52.21	840	-1.06
52.00	851	-1.06
51.79	861	-1.07
51.58	872	-1.07
51.36	882	-1.06
51.15	893	-1.06
50.94	903	-1.06
50.73	914	-1.06
50.51	924	-1.06
50.30	935	-1.05
50.09	945	-1.05
49.87	956	-1.05
49.66	966	-1.05
49.45	977	-1.04
49.24	987	-1.04
49.02	998	-1.04
48.81	1008	-1.04
48.60	1019	-1.03
48.39	1029	-1.03
48.17	1040	-1.03
47.96	1050	-1.03
47.75	1061	-1.02
47.54	1071	-1.02
47.32	1082	-1.02
47.11	1092	-1.01
46.90	1103	-1.01
46.69	1113	-1.00
46.47	1124	-1.00
46.26	1134	-0.99
46.05	1145	-0.99
45.84	1155	-0.98
45.62	1166	-0.98
45.41	1176	-0.97
45.20	1187	-0.97
44.98	1197	-0.96
44.77	1208	-0.95
44.56	1218	-0.95
44.35	1229	-0.94
44.14	1239	-0.93
43.92	1250	-0.92
43.71	1260	-0.92
43.50	1271	-0.91
43.29	1281	-0.90
43.07	1292	-0.89
42.86	1302	-0.88
42.65	1313	-0.87
42.44	1323	-0.86
42.22	1334	-0.85
42.01	1344	-0.83
41.80	1355	-0.82
41.59	1365	-0.81
41.37	1376	-0.80
41.16	1386	-0.78
40.95	1397	-0.77
40.74	1407	-0.75
40.52	1418	-0.73
40.31	1428	-0.72
40.10	1439	-0.70
39.89	1449	-0.68
39.67	1460	-0.66
39.46	1470	-0.64
39.25	1481	-0.62
39.03	1491	-0.60
38.82	1502	-0.58
38.61	1512	-0.55
38.40	1523	-0.52
38.19	1533	-0.50
37.97	1544	-0.47
37.76	1554	-0.44
37.55	1565	-0.41
37.34	1575	-0.37
37.12	1586	-0.34
36.91	1596	-0.30
36.70	1607	-0.26
36.49	1617	-0.22
36.27	1628	-0.18
36.06	1638	-0.14
35.85	1649	-0.09
35.64	1659	-0.05
35.43	1670	0.00
35.21	1680	0.06
35.00	1691	0.12
34.79	1701	0.17
34.58	1712	0.23
34.36	1722	0.30
34.15	1733	0.36
33.94	1743	0.43
33.73	1754	0.50
33.51	1764	0.57
33.30	1775	0.65
33.09	1785	0.73
32.88	1796	0.81
32.66	1806	0.90
32.45	1817	0.99
32.24	1827	1.08
32.03	1838	1.18
31.82	1848	1.28
31.60	1859	1.38
31.39	1869	1.49
31.18	1880	1.59
30.97	1890	1.71
30.75	1901	1.82
30.54	1911	1.94
30.33	1922	2.06
30.12	1932	2.18
29.91	1943	2.30
29.69	1953	2.43
29.48	1964	2.55
29.27	1974	2.68
29.06	1985	2.81
28.84	1995	2.93
28.63	2006	3.06
28.42	2016	3.18
28.21	2027	3.30
27.99	2037	3.41
27.78	2048	3.53
27.57	2058	3.63
27.36	2069	3.73
27.15	2079	3.81
26.93	2090	3.89
26.72	2100	3.95
26.51	2111	3.99
26.30	2121	4.01
26.09	2132	4.01
25.87	2142	3.99
25.66	2153	3.93
25.45	2163	3.84
25.24	2174	3.72
25.02	2184	3.55
24.81	2195	3.35
24.60	2205	3.11
24.39	2216	2.84
24.18	2226	2.54
23.97	2237	2.24
23.76	2247	1.93
23.55	2258	1.64
23.34	2268	1.37
23.12	2279	1.12
22.91	2289	0.91
22.70	2300	0.71
22.48	2310	0.54
22.27	2321	0.39
22.06	2331	0.25
21.85	2342	0.13
21.63	2352	0.03
21.42	2363	-0.07
21.21	2373	-0.16
21.00	2384	-0.23
20.78	2394	-0.30
20.57	2405	-0.35
20.36	2415	-0.41
20.15	2426	-0.46
19.94	2436	-0.50
19.72	2447	-0.54
19.51	2457	-0.57
19.30	2468	-0.60
19.09	2478	-0.63
18.88	2489	-0.65
18.66	2499	-0.68
18.45	2510	-0.70
18.24	2520	-0.72
18.03	2531	-0.74
17.82	2541	-0.75
17.60	2552	-0.77
17.39	2562	-0.78
17.18	2573	-0.80
16.97	2583	-0.81
16.76	2594	-0.82
16.55	2604	-0.83
16.34	2615	-0.84
16.12	2625	-0.85
15.91	2636	-0.86
15.70	2646	-0.87
15.49	2657	-0.88
15.28	2667	-0.89
15.07	2678	-0.90
14.86	2688	-0.91
14.65	2699	-0.92
14.44	2709	-0.92
14.23	2720	-0.93
14.02	2730	-0.94
13.80	2741	-0.94
13.59	2751	-0.95
13.38	2762	-0.96
13.17	2772	-0.96
12.96	2783	-0.97
12.75	2793	-0.98
12.54	2804	-0.98
12.33	2814	-0.99
12.13	2825	-0.99
11.92	2835	-1.00
11.71	2846	-1.00
11.50	2856	-1.00
11.29	2867	-1.01
11.08	2877	-1.01
10.87	2888	-1.01
10.66	2898	-1.01
10.46	2909	-1.01
10.25	2919	-1.01
10.04	2930	-1.00
9.84	2940	-1.00
9.63	2951	-0.99
9.43	2961	-0.99
9.22	2972	-0.98
9.02	2982	-0.98
8.82	2993	-0.97
8.68	3000	-0.97

File: P85_4
P85
Furnace temperature 	Time	HeatFlow
/°C	/s	/mW
8.22	0	-0.96
7.86	26	-0.95
7.37	51	-0.93
6.72	77	-0.82
6.20	102	-0.59
5.94	128	-0.33
5.86	153	-0.10
5.62	179	0.10
5.27	204	0.25
5.09	230	0.36
5.20	255	0.43
5.46	281	0.47
5.76	306	0.50
6.07	332	0.51
6.38	357	0.51
6.67	383	0.50
6.95	408	0.50
7.22	434	0.48
7.48	459	0.47
7.74	485	0.46
7.98	510	0.46
8.22	536	0.45
8.46	561	0.44
8.68	587	0.44
8.91	612	0.43
9.13	638	0.43
9.36	663	0.43
9.58	689	0.42
9.80	714	0.42
10.02	740	0.41
10.24	765	0.41
10.46	791	0.41
10.68	816	0.41
10.89	842	0.40
11.11	867	0.40
11.33	893	0.40
11.55	918	0.39
11.76	944	0.39
11.98	969	0.39
12.20	995	0.38
12.41	1020	0.38
12.63	1046	0.38
12.84	1071	0.38
13.06	1097	0.38
13.27	1122	0.37
13.49	1148	0.37
13.71	1173	0.37
13.92	1199	0.37
14.14	1224	0.37
14.35	1250	0.36
14.57	1275	0.36
14.78	1301	0.36
15.00	1326	0.36
15.21	1352	0.35
15.43	1377	0.35
15.64	1403	0.35
15.86	1428	0.34
16.08	1454	0.34
16.29	1479	0.34
16.50	1505	0.34
16.72	1530	0.33
16.94	1556	0.33
17.15	1581	0.33
17.37	1607	0.32
17.58	1632	0.32
17.80	1658	0.32
18.01	1683	0.32
18.23	1709	0.31
18.44	1734	0.31
18.66	1760	0.31
18.87	1785	0.30
19.09	1811	0.30
19.30	1836	0.30
19.52	1862	0.29
19.73	1887	0.29
19.95	1913	0.29
20.16	1938	0.28
20.38	1964	0.28
20.60	1989	0.27
20.81	2015	0.27
21.03	2040	0.25
21.24	2066	0.24
21.46	2091	0.22
21.67	2117	0.21
21.89	2142	0.19
22.10	2168	0.17
22.32	2193	0.14
22.53	2219	0.11
22.75	2244	0.06
22.96	2270	0.01
23.18	2295	-0.05
23.39	2321	-0.13
23.61	2346	-0.21
23.82	2372	-0.31
24.04	2397	-0.43
24.25	2423	-0.56
24.47	2448	-0.70
24.68	2474	-0.85
24.90	2499	-1.00
25.11	2525	-1.15
25.33	2550	-1.28
25.54	2576	-1.40
25.76	2601	-1.51
25.98	2627	-1.60
26.19	2652	-1.67
26.40	2678	-1.72
26.62	2703	-1.76
26.83	2729	-1.79
27.05	2754	-1.80
27.27	2780	-1.80
27.48	2805	-1.79
27.70	2831	-1.77
27.91	2856	-1.75
28.13	2882	-1.72
28.34	2907	-1.68
28.56	2933	-1.64
28.77	2958	-1.59
28.99	2984	-1.54
29.20	3009	-1.49
29.42	3035	-1.44
29.63	3060	-1.39
29.85	3086	-1.33
30.06	3111	-1.28
30.28	3137	-1.22
30.49	3162	-1.16
30.71	3188	-1.11
30.92	3213	-1.05
31.14	3239	-1.00
31.35	3264	-0.95
31.57	3290	-0.89
31.78	3315	-0.84
32.00	3341	-0.79
32.21	3366	-0.74
32.43	3392	-0.70
32.64	3417	-0.65
32.86	3443	-0.61
33.07	3468	-0.56
33.29	3494	-0.52
33.50	3519	-0.48
33.72	3545	-0.44
33.93	3570	-0.41
34.15	3596	-0.37
34.36	3621	-0.34
34.58	3647	-0.30
34.79	3672	-0.27
35.01	3698	-0.24
35.22	3723	-0.21
35.44	3749	-0.18
35.66	3774	-0.16
35.87	3800	-0.13
36.08	3825	-0.11
36.30	3851	-0.08
36.52	3876	-0.06
36.73	3902	-0.04
36.95	3927	-0.02
37.16	3953	-0.00
37.38	3978	0.02
37.59	4004	0.03
37.81	4029	0.05
38.02	4055	0.07
38.24	4080	0.08
38.45	4106	0.10
38.67	4131	0.11
38.88	4157	0.12
39.10	4182	0.14
39.31	4208	0.15
39.53	4233	0.16
39.74	4259	0.17
39.96	4284	0.18
40.17	4310	0.19
40.39	4335	0.20
40.60	4361	0.21
40.82	4386	0.22
41.03	4412	0.23
41.25	4437	0.24
41.46	4463	0.24
41.68	4488	0.25
41.89	4514	0.26
42.11	4539	0.26
42.32	4565	0.27
42.54	4590	0.28
42.75	4616	0.28
42.97	4641	0.29
43.18	4667	0.29
43.40	4692	0.30
43.61	4718	0.30
43.83	4743	0.31
44.05	4769	0.31
44.26	4794	0.31
44.48	4820	0.32
44.69	4845	0.32
44.91	4871	0.32
45.12	4896	0.33
45.34	4922	0.33
45.55	4947	0.33
45.77	4973	0.34
45.98	4998	0.34
46.19	5024	0.34
46.41	5049	0.35
46.62	5075	0.35
46.84	5100	0.35
47.06	5126	0.35
47.27	5151	0.36
47.48	5177	0.36
47.70	5202	0.36
47.91	5228	0.36
48.13	5253	0.37
48.34	5279	0.37
48.57	5304	0.37
48.77	5330	0.37
48.99	5355	0.38
49.20	5381	0.38
49.42	5406	0.38
49.64	5432	0.38
49.85	5457	0.38
50.06	5483	0.38
50.28	5508	0.39
50.50	5534	0.39
50.72	5559	0.39
50.93	5585	0.39
51.14	5610	0.39
51.36	5636	0.39
51.57	5661	0.39
51.79	5687	0.40
52.00	5712	0.40
52.22	5738	0.40
52.43	5763	0.40
52.65	5789	0.40
52.86	5814	0.40
53.08	5840	0.40
53.29	5865	0.41
53.51	5891	0.41
53.72	5916	0.41
53.94	5942	0.41
54.15	5967	0.41
54.37	5993	0.41
54.58	6018	0.41
54.80	6044	0.41
55.01	6069	0.41
55.23	6095	0.41
55.44	6120	0.42
55.66	6146	0.42
55.87	6171	0.42
56.09	6197	0.42
56.30	6222	0.42
56.52	6248	0.42
56.73	6273	0.42
56.95	6299	0.42
57.16	6324	0.42
57.38	6350	0.42
57.59	6375	0.42
57.81	6401	0.43
58.02	6426	0.43
58.24	6452	0.43
58.45	6477	0.43
58.67	6503	0.43
58.88	6528	0.43
59.10	6554	0.43
59.31	6579	0.43
59.53	6605	0.43
59.74	6630	0.43
59.96	6656	0.43
60.17	6681	0.43
60.39	6707	0.43
60.60	6732	0.42
60.82	6758	0.42
61.03	6783	0.42
61.25	6809	0.41
61.46	6834	0.41
61.68	6860	0.41
61.90	6885	0.40
62.11	6911	0.40
62.32	6936	0.39
62.54	6962	0.39
62.75	6987	0.39
62.97	7013	0.38
63.18	7038	0.38
63.40	7064	0.38
63.61	7089	0.38
63.83	7115	0.38
64.04	7140	0.38
64.26	7166	0.38
64.48	7191	0.38
64.55	7200	0.39

File: P85_5
P85
Furnace temperature 	Time	HeatFlow
/°C	/s	/mW
64.94	0	0.39
66.86	11	0.37
67.91	21	0.26
67.86	32	0.12
67.86	42	-0.04
67.76	53	-0.20
67.63	63	-0.36
67.48	74	-0.49
67.32	84	-0.61
67.15	95	-0.70
66.97	105	-0.77
66.78	116	-0.82
66.59	126	-0.88
66.39	137	-0.95
66.19	147	-1.00
65.99	158	-1.06
65.90	168	-1.10
65.69	179	-1.12
65.51	189	-1.13
65.31	200	-1.12
65.10	210	-1.10
64.89	221	-1.08
64.68	231	-1.05
64.47	242	-1.03
64.25	252	-1.01
64.03	263	-1.00
63.82	273	-0.98
63.60	284	-0.97
63.38	294	-0.96
63.16	305	-0.94
62.95	315	-0.94
62.73	326	-0.94
62.51	336	-0.94
62.29	347	-0.94
62.07	357	-0.95
61.86	368	-0.96
61.64	378	-0.96
61.42	389	-0.97
61.20	399	-0.99
60.99	410	-1.00
60.77	420	-1.01
60.55	431	-1.02
60.34	441	-1.03
60.12	452	-1.03
59.91	462	-1.04
59.69	473	-1.05
59.48	483	-1.05
59.26	494	-1.06
59.05	504	-1.07
58.83	515	-1.07
58.62	525	-1.07
58.40	536	-1.08
58.19	546	-1.08
57.97	557	-1.08
57.76	567	-1.08
57.55	578	-1.08
57.33	588	-1.08
57.12	599	-1.08
56.91	609	-1.08
56.69	620	-1.08
56.48	630	-1.08
56.26	641	-1.08
56.05	651	-1.08
55.84	662	-1.08
55.62	672	-1.08
55.41	683	-1.08
55.20	693	-1.08
54.99	704	-1.08
54.77	714	-1.08
54.56	725	-1.08
54.35	735	-1.08
54.13	746	-1.07
53.92	756	-1.07
53.71	767	-1.07
53.49	777	-1.07
53.28	788	-1.07
53.07	798	-1.07
52.86	809	-1.07
52.64	819	-1.07
52.43	830	-1.07
52.22	840	-1.07
52.01	851	-1.06
51.79	861	-1.07
51.58	872	-1.06
51.37	882	-1.06
51.15	893	-1.06
50.94	903	-1.05
50.73	914	-1.05
50.52	924	-1.04
50.30	935	-1.05
50.09	945	-1.05
49.88	956	-1.04
49.67	966	-1.04
49.45	977	-1.04
49.24	987	-1.04
49.03	998	-1.03
48.81	1008	-1.03
48.60	1019	-1.03
48.39	1029	-1.02
48.18	1040	-1.02
47.96	1050	-1.02
47.75	1061	-1.01
47.54	1071	-1.01
47.33	1082	-1.01
47.11	1092	-1.01
46.90	1103	-1.00
46.69	1113	-0.99
46.48	1124	-0.99
46.26	1134	-0.99
46.05	1145	-0.98
45.84	1155	-0.97
45.63	1166	-0.97
45.41	1176	-0.96
45.20	1187	-0.96
44.99	1197	-0.95
44.78	1208	-0.95
44.56	1218	-0.94
44.35	1229	-0.94
44.14	1239	-0.93
43.93	1250	-0.92
43.71	1260	-0.91
43.50	1271	-0.90
43.29	1281	-0.89
43.08	1292	-0.88
42.86	1302	-0.87
42.65	1313	-0.87
42.44	1323	-0.86
42.23	1334	-0.84
42.01	1344	-0.83
41.80	1355	-0.82
41.59	1365	-0.80
41.38	1376	-0.79
41.16	1386	-0.78
40.95	1397	-0.76
40.74	1407	-0.75
40.52	1418	-0.73
40.31	1428	-0.71
40.10	1439	-0.70
39.89	1449	-0.68
39.68	1460	-0.66
39.46	1470	-0.64
39.25	1481	-0.62
39.04	1491	-0.60
38.83	1502	-0.58
38.61	1512	-0.55
38.40	1523	-0.52
38.19	1533	-0.49
37.98	1544	-0.47
37.76	1554	-0.44
37.55	1565	-0.41
37.34	1575	-0.37
37.13	1586	-0.33
36.91	1596	-0.30
36.70	1607	-0.26
36.49	1617	-0.22
36.28	1628	-0.18
36.06	1638	-0.14
35.85	1649	-0.09
35.63	1659	-0.04
35.42	1670	0.01
35.21	1680	0.06
35.00	1691	0.12
34.78	1701	0.17
34.57	1712	0.23
34.36	1722	0.30
34.15	1733	0.36
33.94	1743	0.43
33.72	1754	0.50
33.51	1764	0.57
33.30	1775	0.65
33.09	1785	0.73
32.87	1796	0.81
32.66	1806	0.90
32.45	1817	0.99
32.24	1827	1.08
32.03	1838	1.18
31.81	1848	1.28
31.60	1859	1.38
31.39	1869	1.48
31.18	1880	1.59
30.96	1890	1.71
30.75	1901	1.82
30.54	1911	1.93
30.33	1922	2.06
30.12	1932	2.18
29.90	1943	2.30
29.69	1953	2.43
29.48	1964	2.55
29.27	1974	2.68
29.05	1985	2.81
28.84	1995	2.93
28.63	2006	3.06
28.42	2016	3.18
28.20	2027	3.30
27.99	2037	3.42
27.78	2048	3.53
27.57	2058	3.63
27.36	2069	3.73
27.14	2079	3.81
26.93	2090	3.89
26.72	2100	3.94
26.51	2111	3.99
26.30	2121	4.01
26.08	2132	4.01
25.87	2142	3.99
25.66	2153	3.93
25.45	2163	3.84
25.24	2174	3.72
25.02	2184	3.56
24.81	2195	3.35
24.60	2205	3.11
24.39	2216	2.84
24.17	2226	2.55
23.96	2237	2.24
23.75	2247	1.93
23.54	2258	1.64
23.33	2268	1.37
23.11	2279	1.13
22.90	2289	0.91
22.69	2300	0.72
22.48	2310	0.55
22.27	2321	0.40
22.05	2331	0.26
21.84	2342	0.14
21.63	2352	0.03
21.42	2363	-0.06
21.21	2373	-0.15
20.99	2384	-0.22
20.78	2394	-0.29
20.57	2405	-0.35
20.36	2415	-0.40
20.15	2426	-0.45
19.93	2436	-0.49
19.72	2447	-0.53
19.51	2457	-0.57
19.30	2468	-0.60
19.09	2478	-0.63
18.88	2489	-0.65
18.66	2499	-0.67
18.45	2510	-0.70
18.24	2520	-0.72
18.03	2531	-0.73
17.82	2541	-0.75
17.60	2552	-0.77
17.39	2562	-0.78
17.18	2573	-0.80
16.97	2583	-0.81
16.76	2594	-0.82
16.55	2604	-0.83
16.34	2615	-0.84
16.12	2625	-0.85
15.92	2636	-0.86
15.70	2646	-0.87
15.49	2657	-0.88
15.28	2667	-0.89
15.07	2678	-0.90
14.86	2688	-0.91
14.65	2699	-0.91
14.44	2709	-0.92
14.23	2720	-0.93
14.02	2730	-0.94
13.81	2741	-0.95
13.60	2751	-0.95
13.39	2762	-0.96
13.17	2772	-0.96
12.96	2783	-0.97
12.76	2793	-0.98
12.55	2804	-0.98
12.34	2814	-0.99
12.13	2825	-0.99
11.92	2835	-0.99
11.71	2846	-1.00
11.50	2856	-1.00
11.29	2867	-1.00
11.08	2877	-1.00
10.88	2888	-1.00
10.67	2898	-1.00
10.46	2909	-1.00
10.26	2919	-0.99
10.05	2930	-0.99
9.85	2940	-0.98
9.64	2951	-0.98
9.44	2961	-0.97
9.24	2972	-0.97
9.03	2982	-0.96
8.84	2993	-0.95
8.70	3000	-0.95