Folder: DSC_correction/rawdata (part 9)

File: SM_LPS_in_H2O_h3.txt
SM_LPS_in_H2O
Creation Date : 12/20/2018 2:24:23 PM
User : PSCM

HeatFlow :
 Initial Mass : 497 mg
 Molar Mass : N/A

Index Time (s)   Furnace Temperature (Â°C) HeatFlow (mW)
1     0          4.527529                 0.494913
77    22.8       3.415532                 0.409398
153   45.6       3.147968                 0.44022
229   68.4       3.294524                 0.515017
305   91.2       3.565951                 0.555048
381   114        3.891968                 0.539354
457   136.8      4.251565                 0.4721
533   159.6      4.632264                 0.36651
609   182.4      4.847479                 0.244555
685   205.2      5.223026                 0.118998
761   228        5.634616                 -0.003449
837   250.8      6.0487                   -0.11626
913   273.6      6.485587                 -0.213914
989   296.4      6.914378                 -0.295459
1065  319.2      7.343917                 -0.362161
1141  342        7.764283                 -0.420633
1217  364.8      8.190295                 -0.468827
1293  387.6      8.608058                 -0.505089
1369  410.4      9.025215                 -0.535867
1445  433.2      9.435169                 -0.557754
1521  456        9.845395                 -0.569787
1597  478.8      10.257                -0.575497
1673  501.6      10.66197                 -0.578751
1749  524.4      11.061                -0.583223
1825  547.2      11.4671                -0.58405
1901  570        11.868                -0.585204
1977  592.8      12.268                -0.586323
2053  615.6      12.6662                -0.588921
2129  638.4      13.0658                -0.587756
2205  661.2      13.4679                -0.585968
2281  684        13.86263                 -0.582714
2357  706.8      14.259                -0.584528
2433  729.6      14.6611                -0.585931
2509  752.4      15.0585                -0.584593
2585  775.2      15.4465                -0.585543
2661  798        15.8443                -0.586872
2737  820.8      16.2392                -0.585665
2813  843.6      16.641                -0.584614
2889  866.4      17.0389                -0.58241
2965  889.2      17.4289                -0.582644
3041  912        17.8309                -0.582052
3117  934.8      18.2264                -0.580569
3193  957.6      18.6183                -0.580865
3269  980.4      19.016                -0.581864
3345  1003.2     19.41398                 -0.584121
3421  1026       19.8089                -0.58179
3497  1048.8     20.2051                -0.580522
3573  1071.6     20.5986                -0.580176
3649  1094.4     20.9945                -0.580454
3725  1117.2     21.3849                -0.580024
3801  1140       21.7813                -0.580149
3877  1162.8     22.173                -0.580309
3953  1185.6     22.5728                -0.581855
4029  1208.4     22.9625                -0.578763
4105  1231.2     23.3617                -0.57894
4181  1254       23.7544                -0.577014
4257  1276.8     24.1537                -0.578126
4333  1299.6     24.5409                -0.575743
4409  1322.4     24.9398                -0.577967
4485  1345.2     25.3286                -0.578936
4561  1368       25.7288                -0.580663
4637  1390.8     26.1201                -0.578833
4713  1413.6     26.5201                -0.579131
4789  1436.4     26.911                -0.577412
4865  1459.2     27.312                -0.579434
4941  1482       27.7019                -0.580373
5017  1504.8     28.1042                -0.580425
5093  1527.6     28.4969                -0.580846
5169  1550.4     28.8921                -0.583425
5245  1573.2     29.2841                -0.579583
5321  1596       29.6787                -0.580393
5397  1618.8     30.07436                 -0.578076
5473  1641.6     30.4662                -0.578137
5549  1664.4     30.8625                -0.577896
5625  1687.2     31.2577                -0.577407
5701  1710       31.6527                -0.579335
5777  1732.8     32.04923                 -0.581746
5853  1755.6     32.4449                -0.582492
5929  1778.4     32.8453                -0.579433
6005  1801.2     33.23618                 -0.579153
6081  1824       33.6305                -0.578101
6157  1846.8     34.0267                -0.579796
6233  1869.6     34.4253                  -0.578311
6309  1892.4     34.8194                -0.577223
6385  1915.2     35.214                -0.579368
6461  1938       35.608                -0.576343
6537  1960.8     36.0099                -0.573305
6613  1983.6     36.409                -0.564524
6689  2006.4     36.79967                 -0.558779
6765  2029.2     37.1961                -0.552981
6841  2052       37.588                -0.552527
6917  2074.8     37.9824                -0.55279
6993  2097.6     38.3737                -0.558599
7069  2120.4     38.77033                 -0.558597
7145  2143.2     39.1596                -0.557291
7221  2166       39.55904                 -0.559183
7297  2188.8     39.9531                -0.55867
7373  2211.6     40.3514                -0.56289
7449  2234.4     40.7387                -0.562737
7525  2257.2     41.1331                -0.561263
7601  2280       41.5257                -0.559651
7677  2302.8     41.9277                -0.562306
7753  2325.6     42.31674                 -0.560136
7829  2348.4     42.7164                -0.564524
7905  2371.2     43.1085                -0.568618
7981  2394       43.5103                -0.573582
8057  2416.8     43.9026                -0.575474
8133  2439.6     44.299                -0.578404
8209  2462.4     44.689                -0.583462
8285  2485.2     45.0826                -0.583312
8361  2508       45.47437                 -0.584551
8437  2530.8     45.87263                 -0.583131
8513  2553.6     46.2646                -0.580959
8589  2576.4     46.6623                -0.584075
8665  2599.2     47.0605                -0.583652
8741  2622       47.46                -0.582802
8817  2644.8     47.8535                -0.582068
8893  2667.6     48.2431                -0.582324
8969  2690.4     48.6378                -0.581608
9045  2713.2     49.0419                -0.581283
9121  2736       49.4367                -0.57789
9197  2758.8     49.8291                -0.580389
9273  2781.6     50.2276                -0.578763
9349  2804.4     50.6268                -0.580894
9425  2827.2     51.0194                -0.580883
9501  2850       51.4132                -0.582971
9577  2872.8     51.80621                 -0.581794
9653  2895.6     52.2007                -0.579386
9729  2918.4     52.5951                -0.578539
9805  2941.2     52.9881                -0.579084
9881  2964       53.3827                -0.581754
9957  2986.8     53.7755                -0.579468
10033 3009.6     54.172                -0.58048
10109 3032.4     54.5624                -0.581001
10185 3055.2     54.9584                -0.578883
10261 3078       55.3504                -0.582427
10337 3100.8     55.75125                 -0.576926
10413 3123.6     56.141                -0.578569
10489 3146.4     56.5431                -0.578837
10565 3169.2     56.9343                -0.574874
10641 3192       57.3317                -0.574425
10717 3214.8     57.7241                -0.577691
10793 3237.6     58.1156                -0.579362
10869 3260.4     58.5063                -0.579874
10945 3283.2     58.9036                -0.57813
11021 3306       59.29653                 -0.576356
11097 3328.8     59.6946                -0.576717
11173 3351.6     60.0942                -0.57967
11249 3374.4     60.4942                -0.577359
11325 3397.2     60.8856                -0.57765
11401 3420       61.2768                -0.580052
11477 3442.8     61.6724                -0.579808
11553 3465.6     62.0748                -0.57963
11629 3488.4     62.4728                -0.574688
11705 3511.2     62.8648                -0.57206
11781 3534       63.265                -0.574389
11857 3556.8     63.6575                -0.572947
11933 3579.6     64.0496                -0.573444
12009 3602.4     64.4425                -0.575132
12085 3625.2     64.8381                -0.578116
12161 3648       65.22975                 -0.57603
12237 3670.8     65.6267                -0.573032
12313 3693.6     66.0188                -0.573721
12389 3716.4     66.4185                -0.575209
12465 3739.2     66.8021                -0.574672
12541 3762       67.2011                -0.576385
12617 3784.8     67.5933                -0.576008
12693 3807.6     67.9937                -0.577757
12769 3830.4     68.385                -0.574813
12845 3853.2     68.784                -0.572401
12921 3876       69.1782                -0.574687
12997 3898.8     69.5695                -0.574884
13073 3921.6     69.9642                -0.576195
13149 3944.4     70.3582                -0.578095
13225 3967.2     70.749                   -0.579047
13301 3990       71.1475                -0.583932
13377 4012.8     71.5418                -0.583053
13453 4035.6     71.9436                -0.583008
13529 4058.4     72.3316                -0.577053
13605 4081.2     72.7303                -0.579005
13681 4104       73.1321                -0.57406
13757 4126.8     73.5302                -0.576578
13833 4149.6     73.92315                 -0.573844
13909 4172.4     74.3185                -0.57745
13985 4195.2     74.7145                -0.578832
14061 4218       75.10754                 -0.57399
14137 4240.8     75.5032                -0.573076
14213 4263.6     75.8936                -0.569261
14289 4286.4     76.2908                -0.569936
14365 4309.2     76.6826                -0.570427
14441 4332       77.0797                -0.571104
14517 4354.8     77.4685                -0.571987
14593 4377.6     77.8629                -0.576167
14669 4400.4     78.2566                -0.570528
14745 4423.2     78.6563                -0.574091
14821 4446       79.0459                -0.573147
14897 4468.8     79.44884                 -0.574691
14973 4491.6     79.8406                -0.57476
15001 4500       79.9868                -0.574555

File: ww_2
H2O_H2O
Furnace temperature 	Time	HeatFlow
/°C	/s	/mW
7.77	0	0.01
6.11	26	0.07
5.34	51	0.22
5.07	77	0.29
5.02	102	0.26
5.08	128	0.20
5.21	153	0.14
5.11	179	0.08
5.18	204	0.04
5.36	230	0.01
5.59	255	-0.01
5.84	281	-0.03
6.10	306	-0.04
6.36	332	-0.05
6.61	357	-0.06
6.87	383	-0.06
7.11	408	-0.07
7.35	434	-0.07
7.59	459	-0.07
7.82	485	-0.07
8.05	510	-0.08
8.27	536	-0.08
8.50	561	-0.08
8.72	587	-0.08
8.94	612	-0.08
9.16	638	-0.08
9.38	663	-0.08
9.60	689	-0.08
9.82	714	-0.08
10.04	740	-0.08
10.25	765	-0.08
10.47	791	-0.08
10.69	816	-0.08
10.90	842	-0.08
11.12	867	-0.08
11.34	893	-0.08
11.55	918	-0.08
11.77	944	-0.08
11.98	969	-0.08
12.20	995	-0.08
12.41	1020	-0.08
12.63	1046	-0.08
12.85	1071	-0.08
13.06	1097	-0.08
13.28	1122	-0.08
13.49	1148	-0.08
13.71	1173	-0.08
13.92	1199	-0.08
14.14	1224	-0.09
14.35	1250	-0.09
14.57	1275	-0.09
14.79	1301	-0.09
15.00	1326	-0.09
15.22	1352	-0.09
15.43	1377	-0.09
15.65	1403	-0.09
15.86	1428	-0.09
16.08	1454	-0.09
16.29	1479	-0.09
16.51	1505	-0.09
16.72	1530	-0.09
16.94	1556	-0.09
17.15	1581	-0.09
17.37	1607	-0.09
17.58	1632	-0.09
17.80	1658	-0.09
18.01	1683	-0.09
18.23	1709	-0.09
18.44	1734	-0.09
18.66	1760	-0.10
18.87	1785	-0.10
19.09	1811	-0.10
19.30	1836	-0.10
19.52	1862	-0.10
19.74	1887	-0.10
19.95	1913	-0.10
20.17	1938	-0.10
20.38	1964	-0.10
20.60	1989	-0.10
20.81	2015	-0.10
21.03	2040	-0.10
21.24	2066	-0.10
21.46	2091	-0.11
21.67	2117	-0.11
21.89	2142	-0.11
22.10	2168	-0.11
22.32	2193	-0.11
22.53	2219	-0.11
22.75	2244	-0.11
22.96	2270	-0.11
23.18	2295	-0.11
23.39	2321	-0.11
23.61	2346	-0.11
23.82	2372	-0.11
24.04	2397	-0.11
24.25	2423	-0.12
24.47	2448	-0.12
24.68	2474	-0.12
24.90	2499	-0.12
25.11	2525	-0.12
25.33	2550	-0.12
25.54	2576	-0.12
25.76	2601	-0.12
25.97	2627	-0.12
26.19	2652	-0.12
26.41	2678	-0.12
26.62	2703	-0.12
26.83	2729	-0.12
27.05	2754	-0.12
27.27	2780	-0.13
27.48	2805	-0.13
27.70	2831	-0.13
27.91	2856	-0.13
28.13	2882	-0.13
28.34	2907	-0.13
28.56	2933	-0.13
28.77	2958	-0.13
28.99	2984	-0.13
29.20	3009	-0.13
29.42	3035	-0.13
29.63	3060	-0.13
29.85	3086	-0.13
30.06	3111	-0.13
30.28	3137	-0.13
30.49	3162	-0.13
30.71	3188	-0.14
30.92	3213	-0.14
31.14	3239	-0.14
31.35	3264	-0.14
31.57	3290	-0.14
31.78	3315	-0.14
32.00	3341	-0.14
32.21	3366	-0.14
32.43	3392	-0.14
32.64	3417	-0.14
32.86	3443	-0.14
33.07	3468	-0.14
33.29	3494	-0.14
33.50	3519	-0.14
33.72	3545	-0.14
33.93	3570	-0.14
34.15	3596	-0.15
34.36	3621	-0.15
34.58	3647	-0.15
34.80	3672	-0.15
35.01	3698	-0.15
35.22	3723	-0.15
35.44	3749	-0.15
35.65	3774	-0.15
35.87	3800	-0.15
36.09	3825	-0.15
36.30	3851	-0.15
36.52	3876	-0.15
36.73	3902	-0.15
36.95	3927	-0.15
37.16	3953	-0.15
37.38	3978	-0.15
37.59	4004	-0.15
37.81	4029	-0.15
38.02	4055	-0.15
38.24	4080	-0.15
38.45	4106	-0.15
38.67	4131	-0.15
38.88	4157	-0.16
39.10	4182	-0.15
39.31	4208	-0.15
39.53	4233	-0.16
39.74	4259	-0.16
39.96	4284	-0.16
40.17	4310	-0.16
40.39	4335	-0.16
40.60	4361	-0.16
40.82	4386	-0.16
41.03	4412	-0.16
41.25	4437	-0.16
41.46	4463	-0.16
41.68	4488	-0.15
41.89	4514	-0.15
42.11	4539	-0.16
42.32	4565	-0.16
42.54	4590	-0.16
42.75	4616	-0.16
42.98	4641	-0.16
43.20	4667	-0.16
43.41	4692	-0.16
43.62	4718	-0.16
43.83	4743	-0.16
44.05	4769	-0.16
44.26	4794	-0.16
44.48	4820	-0.16
44.69	4845	-0.17
44.91	4871	-0.16
45.12	4896	-0.16
45.33	4922	-0.16
45.55	4947	-0.16
45.76	4973	-0.16
45.97	4998	-0.16
46.18	5024	-0.16
46.40	5049	-0.16
46.62	5075	-0.16
46.84	5100	-0.16
47.05	5126	-0.16
47.28	5151	-0.16
47.49	5177	-0.17
47.71	5202	-0.16
47.92	5228	-0.16
48.14	5253	-0.16
48.35	5279	-0.16
48.56	5304	-0.16
48.77	5330	-0.16
48.99	5355	-0.16
49.20	5381	-0.17
49.42	5406	-0.16
49.64	5432	-0.16
49.85	5457	-0.17
50.07	5483	-0.16
50.28	5508	-0.16
50.50	5534	-0.16
50.71	5559	-0.16
50.93	5585	-0.16
51.14	5610	-0.16
51.35	5636	-0.16
51.57	5661	-0.16
51.78	5687	-0.16
52.00	5712	-0.16
52.22	5738	-0.16
52.43	5763	-0.16
52.65	5789	-0.16
52.86	5814	-0.16
53.08	5840	-0.16
53.30	5865	-0.16
53.51	5891	-0.16
53.72	5916	-0.17
53.94	5942	-0.17
54.15	5967	-0.17
54.37	5993	-0.17
54.59	6018	-0.16
54.80	6044	-0.16
55.01	6069	-0.16
55.23	6095	-0.16
55.44	6120	-0.16
55.65	6146	-0.16
55.87	6171	-0.16
56.09	6197	-0.16
56.30	6222	-0.16
56.52	6248	-0.17
56.73	6273	-0.16
56.95	6299	-0.17
57.16	6324	-0.17
57.38	6350	-0.16
57.59	6375	-0.16
57.81	6401	-0.16
58.03	6426	-0.17
58.24	6452	-0.16
58.45	6477	-0.16
58.67	6503	-0.16
58.88	6528	-0.16
59.10	6554	-0.16
59.32	6579	-0.16
59.53	6605	-0.16
59.74	6630	-0.16
59.96	6656	-0.16
60.17	6681	-0.16
60.39	6707	-0.16
60.60	6732	-0.16
60.82	6758	-0.16
61.03	6783	-0.16
61.25	6809	-0.16
61.46	6834	-0.16
61.68	6860	-0.17
61.89	6885	-0.17
62.11	6911	-0.17
62.33	6936	-0.16
62.54	6962	-0.16
62.76	6987	-0.16
62.97	7013	-0.16
63.19	7038	-0.16
63.40	7064	-0.16
63.61	7089	-0.16
63.83	7115	-0.16
64.04	7140	-0.16
64.26	7166	-0.16
64.47	7191	-0.16
64.55	7200	-0.16

File: ww_5
H2O_H2O
Furnace temperature 	Time	HeatFlow
/°C	/s	/mW
64.93	0	-0.16
66.87	11	-0.18
67.93	21	-0.28
67.86	32	-0.40
67.86	42	-0.51
67.76	53	-0.59
67.63	63	-0.65
67.49	74	-0.69
67.32	84	-0.70
67.15	95	-0.68
66.97	105	-0.66
66.78	116	-0.62
66.59	126	-0.59
66.39	137	-0.56
66.19	147	-0.53
65.99	158	-0.49
65.90	168	-0.46
65.69	179	-0.41
65.51	189	-0.37
65.31	200	-0.32
65.10	210	-0.27
64.89	221	-0.21
64.68	231	-0.16
64.47	242	-0.12
64.25	252	-0.08
64.03	263	-0.04
63.81	273	0.00
63.60	284	0.03
63.38	294	0.06
63.16	305	0.09
62.94	315	0.12
62.72	326	0.14
62.51	336	0.16
62.29	347	0.18
62.07	357	0.19
61.85	368	0.21
61.64	378	0.22
61.42	389	0.23
61.20	399	0.24
60.99	410	0.25
60.77	420	0.26
60.55	431	0.27
60.34	441	0.28
60.12	452	0.28
59.91	462	0.29
59.69	473	0.29
59.48	483	0.30
59.26	494	0.30
59.05	504	0.30
58.83	515	0.31
58.62	525	0.31
58.40	536	0.31
58.19	546	0.31
57.97	557	0.31
57.76	567	0.31
57.55	578	0.31
57.33	588	0.31
57.12	599	0.32
56.90	609	0.31
56.69	620	0.31
56.48	630	0.32
56.26	641	0.31
56.05	651	0.32
55.84	662	0.32
55.62	672	0.31
55.41	683	0.31
55.20	693	0.31
54.98	704	0.31
54.77	714	0.31
54.56	725	0.31
54.34	735	0.31
54.13	746	0.30
53.92	756	0.31
53.71	767	0.31
53.49	777	0.31
53.28	788	0.30
53.07	798	0.30
52.86	809	0.30
52.64	819	0.30
52.43	830	0.30
52.22	840	0.29
52.00	851	0.29
51.79	861	0.29
51.58	872	0.29
51.37	882	0.29
51.15	893	0.29
50.94	903	0.29
50.73	914	0.29
50.52	924	0.29
50.30	935	0.29
50.09	945	0.29
49.88	956	0.29
49.67	966	0.29
49.45	977	0.28
49.24	987	0.28
49.03	998	0.28
48.82	1008	0.28
48.60	1019	0.28
48.39	1029	0.28
48.18	1040	0.28
47.96	1050	0.27
47.75	1061	0.27
47.54	1071	0.27
47.33	1082	0.27
47.11	1092	0.27
46.90	1103	0.27
46.69	1113	0.27
46.48	1124	0.27
46.26	1134	0.27
46.05	1145	0.27
45.84	1155	0.27
45.63	1166	0.26
45.41	1176	0.26
45.20	1187	0.26
44.99	1197	0.26
44.78	1208	0.26
44.56	1218	0.26
44.35	1229	0.26
44.14	1239	0.25
43.92	1250	0.26
43.71	1260	0.25
43.50	1271	0.25
43.29	1281	0.25
43.08	1292	0.25
42.86	1302	0.25
42.65	1313	0.25
42.44	1323	0.25
42.23	1334	0.25
42.01	1344	0.24
41.80	1355	0.24
41.59	1365	0.24
41.38	1376	0.24
41.16	1386	0.24
40.95	1397	0.24
40.74	1407	0.23
40.52	1418	0.23
40.31	1428	0.23
40.10	1439	0.23
39.89	1449	0.23
39.68	1460	0.23
39.46	1470	0.23
39.25	1481	0.23
39.04	1491	0.23
38.83	1502	0.23
38.61	1512	0.23
38.40	1523	0.23
38.19	1533	0.22
37.97	1544	0.22
37.76	1554	0.22
37.55	1565	0.22
37.33	1575	0.21
37.12	1586	0.22
36.91	1596	0.21
36.70	1607	0.21
36.48	1617	0.21
36.27	1628	0.21
36.06	1638	0.21
35.85	1649	0.21
35.63	1659	0.21
35.42	1670	0.21
35.21	1680	0.21
35.00	1691	0.20
34.78	1701	0.20
34.57	1712	0.20
34.36	1722	0.20
34.15	1733	0.20
33.94	1743	0.20
33.72	1754	0.20
33.51	1764	0.20
33.30	1775	0.20
33.09	1785	0.20
32.87	1796	0.20
32.66	1806	0.20
32.45	1817	0.19
32.24	1827	0.19
32.03	1838	0.19
31.81	1848	0.19
31.60	1859	0.19
31.39	1869	0.19
31.18	1880	0.19
30.97	1890	0.19
30.75	1901	0.18
30.54	1911	0.18
30.33	1922	0.18
30.12	1932	0.18
29.90	1943	0.18
29.69	1953	0.18
29.48	1964	0.18
29.27	1974	0.18
29.05	1985	0.18
28.84	1995	0.18
28.63	2006	0.18
28.42	2016	0.18
28.20	2027	0.17
27.99	2037	0.17
27.78	2048	0.17
27.57	2058	0.17
27.36	2069	0.17
27.14	2079	0.17
26.93	2090	0.17
26.72	2100	0.17
26.51	2111	0.17
26.29	2121	0.16
26.08	2132	0.16
25.87	2142	0.16
25.66	2153	0.16
25.44	2163	0.16
25.23	2174	0.16
25.02	2184	0.16
24.81	2195	0.15
24.60	2205	0.16
24.38	2216	0.15
24.17	2226	0.15
23.96	2237	0.15
23.75	2247	0.15
23.53	2258	0.15
23.32	2268	0.15
23.11	2279	0.15
22.90	2289	0.14
22.69	2300	0.14
22.48	2310	0.14
22.26	2321	0.15
22.05	2331	0.14
21.84	2342	0.14
21.63	2352	0.14
21.42	2363	0.14
21.20	2373	0.14
20.99	2384	0.14
20.78	2394	0.14
20.57	2405	0.14
20.36	2415	0.14
20.14	2426	0.13
19.93	2436	0.14
19.72	2447	0.13
19.51	2457	0.13
19.30	2468	0.13
19.08	2478	0.13
18.87	2489	0.13
18.66	2499	0.13
18.45	2510	0.13
18.24	2520	0.13
18.02	2531	0.13
17.81	2541	0.13
17.60	2552	0.13
17.39	2562	0.13
17.18	2573	0.12
16.97	2583	0.12
16.75	2594	0.12
16.54	2604	0.12
16.33	2615	0.12
16.12	2625	0.12
15.91	2636	0.12
15.70	2646	0.12
15.49	2657	0.11
15.28	2667	0.12
15.06	2678	0.11
14.85	2688	0.11
14.64	2699	0.11
14.43	2709	0.11
14.22	2720	0.11
14.01	2730	0.11
13.80	2741	0.11
13.59	2751	0.11
13.38	2762	0.11
13.17	2772	0.10
12.95	2783	0.10
12.74	2793	0.10
12.53	2804	0.10
12.32	2814	0.10
12.11	2825	0.10
11.90	2835	0.10
11.69	2846	0.10
11.48	2856	0.10
11.27	2867	0.09
11.06	2877	0.09
10.85	2888	0.09
10.65	2898	0.10
10.44	2909	0.09
10.23	2919	0.10
10.02	2930	0.10
9.81	2940	0.10
9.60	2951	0.10
9.40	2961	0.10
9.19	2972	0.11
8.99	2982	0.11
8.78	2993	0.11
8.64	3000	0.11

File: ww_6
H2O_H2O
Furnace temperature 	Time	HeatFlow
/°C	/s	/mW
8.23	0	0.11
7.77	26	0.11
7.10	51	0.13
6.35	77	0.25
5.89	102	0.40
5.69	128	0.46
5.66	153	0.44
5.42	179	0.39
5.08	204	0.31
5.02	230	0.24
5.21	255	0.17
5.50	281	0.12
5.80	306	0.07
6.11	332	0.03
6.41	357	0.00
6.70	383	-0.02
6.98	408	-0.04
7.24	434	-0.05
7.50	459	-0.06
7.75	485	-0.07
7.99	510	-0.07
8.22	536	-0.07
8.46	561	-0.08
8.69	587	-0.08
8.91	612	-0.08
9.14	638	-0.08
9.36	663	-0.08
9.58	689	-0.08
9.80	714	-0.08
10.02	740	-0.08
10.24	765	-0.08
10.46	791	-0.08
10.68	816	-0.08
10.90	842	-0.08
11.12	867	-0.08
11.33	893	-0.08
11.55	918	-0.08
11.76	944	-0.08
11.98	969	-0.08
12.20	995	-0.08
12.41	1020	-0.08
12.63	1046	-0.08
12.84	1071	-0.08
13.06	1097	-0.08
13.27	1122	-0.08
13.49	1148	-0.08
13.71	1173	-0.08
13.92	1199	-0.08
14.14	1224	-0.08
14.35	1250	-0.08
14.57	1275	-0.08
14.78	1301	-0.08
15.00	1326	-0.08
15.21	1352	-0.08
15.43	1377	-0.08
15.64	1403	-0.09
15.86	1428	-0.09
16.08	1454	-0.09
16.29	1479	-0.09
16.51	1505	-0.09
16.72	1530	-0.09
16.94	1556	-0.09
17.15	1581	-0.09
17.37	1607	-0.09
17.58	1632	-0.09
17.80	1658	-0.09
18.01	1683	-0.09
18.23	1709	-0.09
18.44	1734	-0.09
18.66	1760	-0.09
18.87	1785	-0.09
19.09	1811	-0.09
19.30	1836	-0.09
19.52	1862	-0.09
19.73	1887	-0.10
19.95	1913	-0.10
20.16	1938	-0.10
20.38	1964	-0.10
20.60	1989	-0.10
20.81	2015	-0.10
21.03	2040	-0.10
21.24	2066	-0.10
21.46	2091	-0.10
21.67	2117	-0.10
21.89	2142	-0.10
22.10	2168	-0.10
22.32	2193	-0.10
22.53	2219	-0.10
22.75	2244	-0.10
22.96	2270	-0.10
23.18	2295	-0.11
23.39	2321	-0.11
23.61	2346	-0.11
23.82	2372	-0.11
24.04	2397	-0.11
24.25	2423	-0.11
24.47	2448	-0.11
24.68	2474	-0.11
24.90	2499	-0.11
25.11	2525	-0.11
25.33	2550	-0.11
25.54	2576	-0.11
25.76	2601	-0.11
25.97	2627	-0.11
26.19	2652	-0.12
26.40	2678	-0.12
26.62	2703	-0.12
26.84	2729	-0.12
27.05	2754	-0.12
27.27	2780	-0.12
27.48	2805	-0.12
27.70	2831	-0.12
27.91	2856	-0.12
28.13	2882	-0.12
28.34	2907	-0.12
28.56	2933	-0.12
28.77	2958	-0.12
28.99	2984	-0.13
29.20	3009	-0.13
29.42	3035	-0.13
29.63	3060	-0.13
29.85	3086	-0.13
30.06	3111	-0.13
30.28	3137	-0.13
30.49	3162	-0.13
30.71	3188	-0.13
30.92	3213	-0.13
31.14	3239	-0.13
31.35	3264	-0.13
31.57	3290	-0.13
31.78	3315	-0.13
32.00	3341	-0.13
32.21	3366	-0.14
32.43	3392	-0.13
32.64	3417	-0.14
32.86	3443	-0.14
33.07	3468	-0.14
33.29	3494	-0.14
33.50	3519	-0.14
33.72	3545	-0.14
33.93	3570	-0.14
34.15	3596	-0.14
34.36	3621	-0.14
34.58	3647	-0.14
34.79	3672	-0.14
35.01	3698	-0.14
35.23	3723	-0.14
35.44	3749	-0.14
35.65	3774	-0.14
35.87	3800	-0.15
36.09	3825	-0.15
36.30	3851	-0.15
36.52	3876	-0.15
36.73	3902	-0.15
36.95	3927	-0.15
37.16	3953	-0.15
37.38	3978	-0.15
37.59	4004	-0.15
37.81	4029	-0.15
38.02	4055	-0.15
38.24	4080	-0.15
38.45	4106	-0.15
38.67	4131	-0.15
38.88	4157	-0.15
39.10	4182	-0.15
39.31	4208	-0.15
39.53	4233	-0.15
39.74	4259	-0.15
39.96	4284	-0.15
40.17	4310	-0.15
40.39	4335	-0.15
40.60	4361	-0.16
40.82	4386	-0.15
41.03	4412	-0.16
41.25	4437	-0.16
41.46	4463	-0.16
41.68	4488	-0.16
41.89	4514	-0.16
42.11	4539	-0.16
42.32	4565	-0.16
42.54	4590	-0.16
42.75	4616	-0.16
42.97	4641	-0.16
43.18	4667	-0.16
43.40	4692	-0.16
43.61	4718	-0.16
43.83	4743	-0.16
44.04	4769	-0.16
44.26	4794	-0.16
44.47	4820	-0.16
44.69	4845	-0.16
44.90	4871	-0.16
45.12	4896	-0.16
45.33	4922	-0.16
45.55	4947	-0.16
45.76	4973	-0.17
45.98	4998	-0.17
46.19	5024	-0.17
46.42	5049	-0.16
46.63	5075	-0.16
46.84	5100	-0.16
47.06	5126	-0.16
47.27	5151	-0.16
47.48	5177	-0.16
47.70	5202	-0.16
47.91	5228	-0.16
48.13	5253	-0.16
48.34	5279	-0.16
48.56	5304	-0.16
48.77	5330	-0.17
48.99	5355	-0.17
49.20	5381	-0.17
49.42	5406	-0.16
49.64	5432	-0.16
49.85	5457	-0.16
50.06	5483	-0.17
50.28	5508	-0.17
50.49	5534	-0.17
50.71	5559	-0.17
50.93	5585	-0.17
51.14	5610	-0.17
51.36	5636	-0.17
51.57	5661	-0.16
51.79	5687	-0.16
52.00	5712	-0.17
52.22	5738	-0.17
52.42	5763	-0.17
52.64	5789	-0.17
52.86	5814	-0.17
53.08	5840	-0.16
53.29	5865	-0.16
53.50	5891	-0.16
53.72	5916	-0.16
53.93	5942	-0.16
54.15	5967	-0.17
54.36	5993	-0.16
54.58	6018	-0.16
54.79	6044	-0.17
55.01	6069	-0.17
55.23	6095	-0.17
55.44	6120	-0.17
55.66	6146	-0.17
55.88	6171	-0.17
56.09	6197	-0.16
56.31	6222	-0.17
56.52	6248	-0.17
56.74	6273	-0.16
56.95	6299	-0.16
57.16	6324	-0.17
57.39	6350	-0.17
57.59	6375	-0.16
57.81	6401	-0.16
58.02	6426	-0.16
58.24	6452	-0.16
58.46	6477	-0.16
58.67	6503	-0.16
58.88	6528	-0.16
59.10	6554	-0.16
59.31	6579	-0.16
59.53	6605	-0.16
59.74	6630	-0.16
59.96	6656	-0.16
60.17	6681	-0.16
60.39	6707	-0.17
60.60	6732	-0.16
60.82	6758	-0.16
61.03	6783	-0.16
61.25	6809	-0.16
61.46	6834	-0.16
61.68	6860	-0.16
61.89	6885	-0.17
62.11	6911	-0.17
62.33	6936	-0.17
62.55	6962	-0.17
62.76	6987	-0.17
62.98	7013	-0.17
63.19	7038	-0.16
63.40	7064	-0.16
63.62	7089	-0.16
63.83	7115	-0.16
64.05	7140	-0.16
64.26	7166	-0.16
64.48	7191	-0.16
64.55	7200	-0.16