Folder: DSC_correction/rawdata (part 6)

File: SM_EC-EC_h3.txt
 SM_EC_EC
Creation Date : 12/21/2018 12:44:06 PM
User : PSCM

HeatFlow :
 Initial Mass : 0 mg
 Molar Mass : N/A

Index Time (s)   Furnace Temperature (Â°C) HeatFlow (mW)
1     0          4.471363                 0.26142
77    22.8       3.371361                 0.124814
153   45.6       3.130447                 0.01889
229   68.4       3.276582                 -0.201525
305   91.2       3.551594                 -0.523175
381   114        3.879833                 -0.888992
457   136.8      4.240924                 -1.256943
533   159.6      4.622806                 -1.59623
609   182.4      4.841613                 -1.889427
685   205.2      5.217296                 -2.135446
761   228        5.630308                 -2.333448
837   250.8      6.047901                 -2.489615
913   273.6      6.480768                 -2.604971
989   296.4      6.912011                 -2.692512
1065  319.2      7.342573                 -2.753934
1141  342        7.762984                 -2.799609
1217  364.8      8.189265                 -2.825661
1293  387.6      8.605982                 -2.843531
1369  410.4      9.026755                 -2.851274
1445  433.2      9.434981                 -2.854929
1521  456        9.845272                 -2.849887
1597  478.8      10.256                -2.847771
1673  501.6      10.6613                -2.841978
1749  524.4      11.0617                -2.839552
1825  547.2      11.4664                -2.832201
1901  570        11.86985                 -2.829485
1977  592.8      12.269                -2.825145
2053  615.6      12.666                -2.821082
2129  638.4      13.0644                -2.814881
2205  661.2      13.4677                  -2.81278
2281  684        13.8615                -2.811752
2357  706.8      14.2598                -2.812695
2433  729.6      14.6589                -2.810229
2509  752.4      15.0556                -2.808772
2585  775.2      15.4468                -2.805753
2661  798        15.8424                -2.805556
2737  820.8      16.2393                -2.802405
2813  843.6      16.6415                -2.802711
2889  866.4      17.0377                -2.803637
2965  889.2      17.4305                -2.806903
3041  912        17.83097                 -2.805094
3117  934.8      18.2256                -2.807299
3193  957.6      18.6194                -2.808112
3269  980.4      19.0159                -2.808274
3345  1003.2     19.4143                -2.8074
3421  1026       19.8097                -2.805554
3497  1048.8     20.2036                -2.804965
3573  1071.6     20.59757                 -2.806008
3649  1094.4     20.9927                -2.807179
3725  1117.2     21.3843                -2.805034
3801  1140       21.7806                -2.805755
3877  1162.8     22.1738                -2.805635
3953  1185.6     22.5733                -2.803147
4029  1208.4     22.9621                -2.799885
4105  1231.2     23.3618                -2.800741
4181  1254       23.7534                -2.802837
4257  1276.8     24.1537                -2.803415
4333  1299.6     24.541                -2.80349
4409  1322.4     24.9394                -2.806634
4485  1345.2     25.3278                -2.807763
4561  1368       25.7296                -2.807941
4637  1390.8     26.1202                -2.805663
4713  1413.6     26.5187                -2.806238
4789  1436.4     26.9109                -2.807411
4865  1459.2     27.3105                -2.810997
4941  1482       27.7039                -2.807443
5017  1504.8     28.1043                -2.806217
5093  1527.6     28.49509                 -2.806
5169  1550.4     28.8916                -2.805375
5245  1573.2     29.2835                -2.802464
5321  1596       29.68036                 -2.800421
5397  1618.8     30.0752                -2.801235
5473  1641.6     30.4656                -2.803456
5549  1664.4     30.8624                -2.801349
5625  1687.2     31.2576                -2.805252
5701  1710       31.6545                -2.805089
5777  1732.8     32.0488                -2.807098
5853  1755.6     32.4445                -2.804346
5929  1778.4     32.8443                -2.803127
6005  1801.2     33.2338                -2.802039
6081  1824       33.6292                -2.805283
6157  1846.8     34.0281                -2.802863
6233  1869.6     34.4272                -2.803579
6309  1892.4     34.822                -2.80333
6385  1915.2     35.2134                -2.80331
6461  1938       35.6088                -2.801702
6537  1960.8     36.0096                -2.799494
6613  1983.6     36.4085                -2.799053
6689  2006.4     36.7982                -2.803064
6765  2029.2     37.1954                -2.804293
6841  2052       37.5883                -2.803735
6917  2074.8     37.9829                -2.805148
6993  2097.6     38.3732                -2.805992
7069  2120.4     38.7717                -2.805016
7145  2143.2     39.1631                -2.803331
7221  2166       39.5589                -2.806795
7297  2188.8     39.9529                -2.806207
7373  2211.6     40.3507                -2.808442
7449  2234.4     40.7362                -2.806606
7525  2257.2     41.1345                -2.807464
7601  2280       41.5274                -2.806401
7677  2302.8     41.9272                -2.805319
7753  2325.6     42.3162                -2.802591
7829  2348.4     42.7174                -2.803172
7905  2371.2     43.10969                 -2.804513
7981  2394       43.5101                -2.806612
8057  2416.8     43.9026                -2.803528
8133  2439.6     44.2988                -2.807594
8209  2462.4     44.689                -2.805597
8285  2485.2     45.081                -2.808101
8361  2508       45.4743                -2.803162
8437  2530.8     45.8715                -2.801265
8513  2553.6     46.2631                -2.801332
8589  2576.4     46.6618                -2.803486
8665  2599.2     47.0613                -2.800288
8741  2622       47.4611                -2.803189
8817  2644.8     47.8525                -2.800466
8893  2667.6     48.2414                -2.799121
8969  2690.4     48.6375                -2.794366
9045  2713.2     49.0396                -2.796297
9121  2736       49.4381                -2.794998
9197  2758.8     49.8278                -2.800344
9273  2781.6     50.2276                -2.799469
9349  2804.4     50.6273                -2.799907
9425  2827.2     51.0203                -2.802924
9501  2850       51.4126                -2.805725
9577  2872.8     51.8064                -2.803148
9653  2895.6     52.1983                -2.803588
9729  2918.4     52.5934                -2.801124
9805  2941.2     52.9856                -2.802436
9881  2964       53.3834                -2.803675
9957  2986.8     53.7751                -2.800176
10033 3009.6     54.1732                -2.799842
10109 3032.4     54.5602                -2.797548
10185 3055.2     54.958                -2.796253
10261 3078       55.35                -2.788033
10337 3100.8     55.7499                -2.78923
10413 3123.6     56.14119                 -2.788061
10489 3146.4     56.5405                -2.79163
10565 3169.2     56.9327                -2.789892
10641 3192       57.3319                -2.796755
10717 3214.8     57.7236                -2.796391
10793 3237.6     58.11358                 -2.798744
10869 3260.4     58.5076                -2.794366
10945 3283.2     58.9047                -2.79623
11021 3306       59.297                -2.793006
11097 3328.8     59.6939                -2.792702
11173 3351.6     60.0937                -2.792512
11249 3374.4     60.4929                -2.797424
11325 3397.2     60.8838                -2.800064
11401 3420       61.2771                -2.799308
11477 3442.8     61.6715                -2.794252
11553 3465.6     62.0749                -2.793829
11629 3488.4     62.4701                -2.794123
11705 3511.2     62.8638                -2.794551
11781 3534       63.2648                -2.797993
11857 3556.8     63.6594                -2.795487
11933 3579.6     64.0529                -2.795452
12009 3602.4     64.4415                -2.796487
12085 3625.2     64.8369                -2.794405
12161 3648       65.2317                -2.792688
12237 3670.8     65.6288                -2.7946
12313 3693.6     66.0228                -2.797627
12389 3716.4     66.4184                -2.798821
12465 3739.2     66.79997                 -2.793786
12541 3762       67.20066                 -2.789029
12617 3784.8     67.594                -2.788835
12693 3807.6     67.9934                -2.788636
12769 3830.4     68.3847                -2.786329
12845 3853.2     68.7858                -2.791476
12921 3876       69.17655                 -2.796494
12997 3898.8     69.571                -2.800304
13073 3921.6     69.9647                -2.79667
13149 3944.4     70.3565                -2.795947
13225 3967.2     70.7474                -2.798171
13301 3990       71.1459                -2.796455
13377 4012.8     71.542                -2.793763
13453 4035.6     71.9444                -2.789486
13529 4058.4     72.3337                -2.782461
13605 4081.2     72.73052                 -2.779073
13681 4104       73.1302                -2.779461
13757 4126.8     73.5295                -2.777018
13833 4149.6     73.9231                -2.774493
13909 4172.4     74.3174                -2.775039
13985 4195.2     74.7152                -2.769315
14061 4218       75.1112                -2.767657
14137 4240.8     75.5039                -2.775354
14213 4263.6     75.8919                -2.777447
14289 4286.4     76.2889                -2.775623
14365 4309.2     76.6832                -2.779077
14441 4332       77.0799                -2.784447
14517 4354.8     77.4669                -2.789559
14593 4377.6     77.8664                -2.788537
14669 4400.4     78.2587                -2.78776
14745 4423.2     78.6565                -2.789063
14821 4446       79.0457                -2.790514
14897 4468.8     79.44795                 -2.794195
14973 4491.6     79.841                -2.789049
15001 4500       79.9871                -2.790007

File: SM_LPS_in_H2O_c1.txt
SM_LPS_in_H2O
Creation Date : 12/20/2018 2:23:31 PM
User : PSCM

HeatFlow :
 Initial Mass : 497 mg
 Molar Mass : N/A

Index Time (s)   Furnace Temperature (Â°C) HeatFlow (mW)
1     0          83.0716                -0.21552
75    22.2       84.53871                 -0.211064
149   44.4       84.4509                -0.290737
223   66.6       84.2272                -0.378292
297   88.8       83.9257                -0.414432
371   111        83.5908                -0.395112
445   133.2      83.2343                -0.32922
519   155.4      82.8672                -0.237904
593   177.6      82.6129                -0.133844
667   199.8      82.2344                -0.023881
741   222        81.8486                0.07282
815   244.2      81.4637                0.160705
889   266.4      81.0712                0.232067
963   288.6      80.6728                0.29335
1037  310.8      80.2777                0.346792
1111  333        79.8799                0.392165
1185  355.2      79.4848                0.425202
1259  377.4      79.0901                0.453749
1333  399.6      78.7022                0.473272
1407  421.8      78.3036                0.485065
1481  444        77.9166                0.489904
1555  466.2      77.5225                0.514159
1629  488.4      77.142                0.536219
1703  510.6      76.7501                0.552195
1777  532.8      76.3595                0.559074
1851  555        75.9718                0.568371
1925  577.2      75.5853                0.575532
1999  599.4      75.1998                0.580384
2073  621.6      74.81548                 0.586212
2147  643.8      74.43569                 0.589136
2221  666        74.0538                0.585679
2295  688.2      73.6687                0.587988
2369  710.4      73.2811                0.588376
2443  732.6      72.8945                0.589512
2517  754.8      72.5042                0.591184
2591  777        72.1219                0.595219
2665  799.2      71.7329                0.597937
2739  821.4      71.3469                0.596112
2813  843.6      70.9579                0.592188
2887  865.8      70.5808                0.589171
2961  888        70.1944                0.584581
3035  910.2      69.8051                0.581777
3109  932.4      69.4177                0.579166
3183  954.6      69.0348                0.574747
3257  976.8      68.6518                0.577463
3331  999        68.2657                0.57721
3405  1021.2     67.8885                0.576186
3479  1043.4     67.508                0.574911
3553  1065.6     67.1256                0.571824
3627  1087.8     66.7357                0.571511
3701  1110       66.3495                0.571387
3775  1132.2     65.96138                 0.570667
3849  1154.4     65.57957                 0.569471
3923  1176.6     65.1899                0.568402
3997  1198.8     64.80763                 0.570447
4071  1221       64.4177                0.570275
4145  1243.2     64.0431                0.568407
4219  1265.4     63.6533                0.569237
4293  1287.6     63.2635                0.563033
4367  1309.8     62.8772                0.566271
4441  1332       62.4966                0.565604
4515  1354.2     62.1137                0.565046
4589  1376.4     61.7265                0.56281
4663  1398.6     61.3495                0.561724
4737  1420.8     60.9702                0.563927
4811  1443       60.5848                0.562691
4885  1465.2     60.1971                0.557206
4959  1487.4     59.81164                 0.555231
5033  1509.6     59.4228                0.55447
5107  1531.8     59.042                0.553608
5181  1554       58.6537                0.553733
5255  1576.2     58.2707                0.55035
5329  1598.4     57.8803                0.550978
5403  1620.6     57.5044                0.549237
5477  1642.8     57.1159                0.547401
5551  1665       56.728                0.546638
5625  1687.2     56.3443                0.545072
5699  1709.4     55.95857                 0.546742
5773  1731.6     55.57488                 0.546892
5847  1753.8     55.1927                  0.548298
5921  1776       54.813                0.54686
5995  1798.2     54.4314                0.550403
6069  1820.4     54.0513                0.545234
6143  1842.6     53.66184                 0.546136
6217  1864.8     53.2767                0.543935
6291  1887       52.8885                0.544704
6365  1909.2     52.5056                0.545203
6439  1931.4     52.119                0.54567
6513  1953.6     51.7338                0.548809
6587  1975.8     51.3469                0.549238
6661  1998       50.9691                0.547726
6735  2020.2     50.584                0.546526
6809  2042.4     50.1994                0.545802
6883  2064.6     49.8093                0.545563
6957  2086.8     49.4283                0.547996
7031  2109       49.039                0.548672
7105  2131.2     48.6591                0.548049
7179  2153.4     48.2802                0.546213
7253  2175.6     47.8974                0.546484
7327  2197.8     47.5128                0.544574
7401  2220       47.1325                0.547589
7475  2242.2     46.7478                0.546176
7549  2264.4     46.3613                0.546415
7623  2286.6     45.97519                 0.547314
7697  2308.8     45.5886                0.548677
7771  2331       45.2083                0.549152
7845  2353.2     44.8147                0.549611
7919  2375.4     44.437                0.551993
7993  2397.6     44.0476                0.549932
8067  2419.8     43.6708                0.547247
8141  2442       43.2833                0.546678
8215  2464.2     42.8977                0.544798
8289  2486.4     42.5091                0.549351
8363  2508.6     42.1218                0.548565
8437  2530.8     41.7475                0.546795
8511  2553       41.3643                0.548338
8585  2575.2     40.9825                0.547272
8659  2597.4     40.5937                0.546385
8733  2619.6     40.2126                0.548304
8807  2641.8     39.8316                0.547293
8881  2664       39.4442                0.548476
8955  2686.2     39.0553                0.549794
9029  2708.4     38.6723                0.549067
9103  2730.6     38.2855                0.551618
9177  2752.8     37.905                0.547881
9251  2775       37.5107                0.549581
9325  2797.2     37.1334                0.547933
9399  2819.4     36.744                0.545429
9473  2841.6     36.3686                0.547486
9547  2863.8     35.9815                0.54871
9621  2886       35.5932                0.54669
9695  2908.2     35.2119                0.544998
9769  2930.4     34.8254                0.545667
9843  2952.6     34.4445                0.544662
9917  2974.8     34.059                0.544348
9991  2997       33.6729                0.54491
10065 3019.2     33.29571                 0.546737
10139 3041.4     32.9189                0.549241
10213 3063.6     32.5282                0.549441
10287 3085.8     32.1448                0.548484
10361 3108       31.7574                0.547043
10435 3130.2     31.3744                0.549267
10509 3152.4     30.9866                0.546992
10583 3174.6     30.6053                0.545496
10657 3196.8     30.2128                0.543707
10731 3219       29.8346                0.542564
10805 3241.2     29.4443                0.546472
10879 3263.4     29.0706                0.54342
10953 3285.6     28.6831                0.542242
11027 3307.8     28.2999                0.541608
11101 3330       27.9146                0.541117
11175 3352.2     27.5256                0.539042
11249 3374.4     27.1431                0.540237
11323 3396.6     26.7665                0.541478
11397 3418.8     26.3809                0.544683
11471 3441       25.9906                0.544625
11545 3463.2     25.6183                0.543072
11619 3485.4     25.2351                0.545039
11693 3507.6     24.8504                0.543143
11767 3529.8     24.4607                0.543423
11841 3552       24.0784                0.542386
11915 3574.2     23.687                0.543202
11989 3596.4     23.31                0.544961
12063 3618.6     22.9223                0.547582
12137 3640.8     22.5372                0.548207
12211 3663       22.1512                0.549216
12285 3685.2     21.7756                0.550563
12359 3707.4     21.388                0.550762
12433 3729.6     21.006                0.551
12507 3751.8     20.6184                0.553662
12581 3774       20.2366                0.554188
12655 3796.2     19.8539                0.555216
12729 3818.4     19.46529                 0.5556
12803 3840.6     19.0926                0.556279
12877 3862.8     18.7056                0.55851
12951 3885       18.3258                0.558493
13025 3907.2     17.93754                 0.557748
13099 3929.4     17.5601                0.556411
13173 3951.6     17.1756                0.557769
13247 3973.8     16.794                0.556838
13321 3996       16.405                0.558939
13395 4018.2     16.0218                0.558626
13469 4040.4     15.6379                0.558608
13543 4062.6     15.2605                0.558467
13617 4084.8     14.8709                0.558196
13691 4107       14.4897                0.557814
13765 4129.2     14.10493                 0.558698
13839 4151.4     13.7304                0.560776
13913 4173.6     13.3527                0.561918
13987 4195.8     12.96                0.561873
14061 4218       12.5824                0.562832
14135 4240.2     12.19759                 0.562755
14209 4262.4     11.819                0.562139
14283 4284.6     11.4354                0.561721
14357 4306.8     11.0537                0.562359
14431 4329       10.6782                0.563342
14505 4351.2     10.3022                0.566275
14579 4373.4     9.921312                 0.566662
14653 4395.6     9.54358                  0.56869
14727 4417.8     9.163188                 0.57095
14801 4440       8.791381                 0.574715
14875 4462.2     8.413178                 0.582853
14949 4484.4     8.037215                 0.592242
15001 4500       7.774359                 0.599808