Folder: DSC_correction/rawdata (part 3)

File: P85_6
P85
Furnace temperature 	Time	HeatFlow
/°C	/s	/mW
8.27	0	-0.95
7.92	26	-0.93
7.46	51	-0.91
6.85	77	-0.83
6.34	102	-0.63
6.06	128	-0.39
5.96	153	-0.16
5.72	179	0.03
5.37	204	0.19
5.15	230	0.30
5.23	255	0.39
5.47	281	0.44
5.76	306	0.47
6.07	332	0.49
6.37	357	0.50
6.67	383	0.50
6.95	408	0.49
7.22	434	0.48
7.48	459	0.47
7.73	485	0.46
7.98	510	0.45
8.22	536	0.45
8.45	561	0.44
8.68	587	0.44
8.90	612	0.44
9.12	638	0.43
9.34	663	0.43
9.57	689	0.43
9.79	714	0.43
10.01	740	0.42
10.23	765	0.42
10.45	791	0.41
10.67	816	0.41
10.89	842	0.41
11.11	867	0.40
11.33	893	0.40
11.54	918	0.40
11.76	944	0.40
11.98	969	0.39
12.19	995	0.39
12.41	1020	0.39
12.63	1046	0.38
12.84	1071	0.38
13.06	1097	0.38
13.27	1122	0.38
13.49	1148	0.38
13.70	1173	0.37
13.92	1199	0.37
14.14	1224	0.37
14.35	1250	0.36
14.57	1275	0.36
14.78	1301	0.36
15.00	1326	0.36
15.21	1352	0.35
15.43	1377	0.35
15.64	1403	0.35
15.86	1428	0.35
16.07	1454	0.34
16.29	1479	0.34
16.50	1505	0.34
16.72	1530	0.33
16.93	1556	0.33
17.15	1581	0.33
17.37	1607	0.33
17.58	1632	0.32
17.80	1658	0.32
18.01	1683	0.32
18.23	1709	0.31
18.44	1734	0.31
18.66	1760	0.31
18.87	1785	0.30
19.09	1811	0.30
19.30	1836	0.30
19.52	1862	0.29
19.73	1887	0.29
19.95	1913	0.29
20.16	1938	0.28
20.38	1964	0.28
20.59	1989	0.27
20.81	2015	0.27
21.03	2040	0.26
21.24	2066	0.24
21.46	2091	0.23
21.67	2117	0.21
21.89	2142	0.19
22.10	2168	0.17
22.32	2193	0.14
22.53	2219	0.10
22.75	2244	0.06
22.96	2270	0.01
23.18	2295	-0.06
23.39	2321	-0.13
23.61	2346	-0.21
23.82	2372	-0.32
24.04	2397	-0.43
24.25	2423	-0.56
24.47	2448	-0.71
24.68	2474	-0.86
24.90	2499	-1.01
25.11	2525	-1.15
25.33	2550	-1.29
25.54	2576	-1.41
25.76	2601	-1.51
25.97	2627	-1.60
26.19	2652	-1.67
26.40	2678	-1.73
26.62	2703	-1.76
26.83	2729	-1.79
27.05	2754	-1.80
27.26	2780	-1.80
27.48	2805	-1.79
27.70	2831	-1.78
27.91	2856	-1.75
28.13	2882	-1.72
28.34	2907	-1.68
28.56	2933	-1.64
28.77	2958	-1.59
28.99	2984	-1.55
29.20	3009	-1.49
29.42	3035	-1.44
29.63	3060	-1.39
29.85	3086	-1.33
30.06	3111	-1.28
30.28	3137	-1.22
30.49	3162	-1.17
30.71	3188	-1.11
30.92	3213	-1.05
31.14	3239	-1.00
31.35	3264	-0.95
31.57	3290	-0.89
31.78	3315	-0.84
31.99	3341	-0.79
32.21	3366	-0.75
32.42	3392	-0.70
32.64	3417	-0.65
32.86	3443	-0.61
33.07	3468	-0.56
33.29	3494	-0.52
33.50	3519	-0.48
33.72	3545	-0.44
33.93	3570	-0.41
34.15	3596	-0.37
34.36	3621	-0.34
34.58	3647	-0.30
34.79	3672	-0.27
35.01	3698	-0.24
35.22	3723	-0.21
35.44	3749	-0.18
35.65	3774	-0.16
35.87	3800	-0.13
36.09	3825	-0.11
36.30	3851	-0.09
36.52	3876	-0.06
36.73	3902	-0.04
36.95	3927	-0.02
37.16	3953	-0.00
37.38	3978	0.02
37.59	4004	0.04
37.81	4029	0.05
38.02	4055	0.07
38.24	4080	0.08
38.45	4106	0.10
38.67	4131	0.11
38.88	4157	0.12
39.10	4182	0.14
39.31	4208	0.15
39.53	4233	0.16
39.74	4259	0.17
39.95	4284	0.18
40.17	4310	0.19
40.39	4335	0.20
40.60	4361	0.21
40.82	4386	0.22
41.03	4412	0.23
41.25	4437	0.23
41.46	4463	0.24
41.68	4488	0.25
41.89	4514	0.26
42.11	4539	0.26
42.32	4565	0.27
42.54	4590	0.27
42.75	4616	0.28
42.97	4641	0.29
43.19	4667	0.29
43.40	4692	0.30
43.61	4718	0.30
43.83	4743	0.30
44.04	4769	0.31
44.26	4794	0.31
44.48	4820	0.32
44.69	4845	0.33
44.90	4871	0.33
45.12	4896	0.33
45.33	4922	0.33
45.55	4947	0.33
45.76	4973	0.34
45.99	4998	0.34
46.20	5024	0.34
46.41	5049	0.34
46.63	5075	0.35
46.84	5100	0.35
47.06	5126	0.36
47.27	5151	0.36
47.49	5177	0.36
47.70	5202	0.36
47.91	5228	0.36
48.13	5253	0.36
48.35	5279	0.37
48.56	5304	0.37
48.78	5330	0.38
48.99	5355	0.38
49.21	5381	0.38
49.41	5406	0.38
49.64	5432	0.38
49.85	5457	0.38
50.07	5483	0.38
50.28	5508	0.38
50.50	5534	0.39
50.71	5559	0.39
50.93	5585	0.39
51.14	5610	0.39
51.36	5636	0.39
51.57	5661	0.39
51.79	5687	0.40
52.00	5712	0.40
52.22	5738	0.40
52.43	5763	0.40
52.65	5789	0.40
52.86	5814	0.40
53.08	5840	0.40
53.29	5865	0.41
53.51	5891	0.40
53.72	5916	0.41
53.94	5942	0.41
54.15	5967	0.41
54.37	5993	0.41
54.58	6018	0.41
54.80	6044	0.41
55.01	6069	0.41
55.23	6095	0.41
55.44	6120	0.41
55.66	6146	0.41
55.87	6171	0.42
56.09	6197	0.42
56.30	6222	0.42
56.52	6248	0.42
56.73	6273	0.42
56.95	6299	0.42
57.16	6324	0.42
57.38	6350	0.42
57.59	6375	0.43
57.81	6401	0.43
58.02	6426	0.43
58.24	6452	0.43
58.45	6477	0.43
58.67	6503	0.43
58.89	6528	0.43
59.10	6554	0.43
59.31	6579	0.43
59.53	6605	0.43
59.74	6630	0.43
59.96	6656	0.43
60.17	6681	0.42
60.39	6707	0.42
60.60	6732	0.42
60.82	6758	0.42
61.03	6783	0.42
61.25	6809	0.41
61.46	6834	0.41
61.68	6860	0.40
61.90	6885	0.40
62.11	6911	0.40
62.33	6936	0.39
62.54	6962	0.39
62.76	6987	0.38
62.97	7013	0.38
63.18	7038	0.38
63.40	7064	0.38
63.62	7089	0.38
63.83	7115	0.38
64.05	7140	0.38
64.26	7166	0.38
64.48	7191	0.39
64.55	7200	0.39

File: P85_7
P85
Furnace temperature 	Time	HeatFlow
/°C	/s	/mW
65.02	0	0.39
66.84	11	0.37
67.89	21	0.27
67.84	32	0.13
67.85	42	-0.03
67.75	53	-0.19
67.63	63	-0.34
67.49	74	-0.48
67.32	84	-0.59
67.15	95	-0.68
66.97	105	-0.75
66.78	116	-0.80
66.59	126	-0.86
66.40	137	-0.92
66.20	147	-0.99
65.99	158	-1.04
65.90	168	-1.08
65.70	179	-1.10
65.51	189	-1.11
65.32	200	-1.11
65.11	210	-1.09
64.90	221	-1.07
64.69	231	-1.04
64.47	242	-1.02
64.25	252	-1.00
64.04	263	-0.98
63.82	273	-0.97
63.60	284	-0.97
63.38	294	-0.95
63.17	305	-0.94
62.95	315	-0.93
62.73	326	-0.93
62.51	336	-0.93
62.29	347	-0.93
62.08	357	-0.94
61.86	368	-0.95
61.64	378	-0.96
61.42	389	-0.97
61.21	399	-0.97
60.99	410	-0.99
60.77	420	-1.00
60.56	431	-1.01
60.34	441	-1.02
60.12	452	-1.03
59.91	462	-1.04
59.69	473	-1.04
59.48	483	-1.05
59.26	494	-1.05
59.05	504	-1.06
58.83	515	-1.07
58.62	525	-1.07
58.40	536	-1.07
58.19	546	-1.07
57.98	557	-1.07
57.76	567	-1.08
57.55	578	-1.08
57.33	588	-1.08
57.12	599	-1.08
56.91	609	-1.08
56.69	620	-1.08
56.48	630	-1.08
56.27	641	-1.08
56.05	651	-1.08
55.84	662	-1.08
55.63	672	-1.08
55.41	683	-1.08
55.20	693	-1.07
54.99	704	-1.07
54.77	714	-1.08
54.56	725	-1.07
54.35	735	-1.07
54.13	746	-1.08
53.92	756	-1.07
53.71	767	-1.07
53.50	777	-1.07
53.28	788	-1.07
53.07	798	-1.06
52.86	809	-1.07
52.64	819	-1.06
52.43	830	-1.07
52.22	840	-1.06
52.01	851	-1.06
51.79	861	-1.06
51.58	872	-1.05
51.37	882	-1.05
51.16	893	-1.05
50.94	903	-1.05
50.73	914	-1.05
50.52	924	-1.05
50.30	935	-1.04
50.09	945	-1.04
49.88	956	-1.04
49.67	966	-1.04
49.45	977	-1.03
49.24	987	-1.03
49.03	998	-1.03
48.82	1008	-1.03
48.60	1019	-1.02
48.39	1029	-1.02
48.18	1040	-1.02
47.97	1050	-1.01
47.75	1061	-1.01
47.54	1071	-1.00
47.33	1082	-1.00
47.12	1092	-1.00
46.90	1103	-1.00
46.69	1113	-0.99
46.48	1124	-0.99
46.27	1134	-0.98
46.05	1145	-0.98
45.84	1155	-0.97
45.63	1166	-0.97
45.41	1176	-0.96
45.20	1187	-0.95
44.99	1197	-0.95
44.78	1208	-0.95
44.56	1218	-0.94
44.35	1229	-0.93
44.14	1239	-0.92
43.93	1250	-0.91
43.71	1260	-0.91
43.50	1271	-0.90
43.29	1281	-0.89
43.08	1292	-0.88
42.86	1302	-0.87
42.65	1313	-0.86
42.44	1323	-0.85
42.23	1334	-0.83
42.01	1344	-0.83
41.80	1355	-0.81
41.59	1365	-0.80
41.38	1376	-0.79
41.16	1386	-0.77
40.95	1397	-0.76
40.74	1407	-0.74
40.53	1418	-0.73
40.31	1428	-0.71
40.10	1439	-0.69
39.89	1449	-0.67
39.68	1460	-0.66
39.46	1470	-0.63
39.25	1481	-0.61
39.04	1491	-0.59
38.83	1502	-0.57
38.61	1512	-0.54
38.40	1523	-0.52
38.19	1533	-0.50
37.98	1544	-0.47
37.76	1554	-0.44
37.55	1565	-0.40
37.34	1575	-0.37
37.13	1586	-0.33
36.92	1596	-0.29
36.70	1607	-0.26
36.49	1617	-0.21
36.28	1628	-0.18
36.07	1638	-0.13
35.85	1649	-0.09
35.64	1659	-0.04
35.43	1670	0.01
35.21	1680	0.07
34.99	1691	0.12
34.78	1701	0.17
34.57	1712	0.23
34.36	1722	0.30
34.15	1733	0.36
33.94	1743	0.43
33.73	1754	0.50
33.52	1764	0.58
33.31	1775	0.65
33.09	1785	0.73
32.88	1796	0.81
32.67	1806	0.90
32.45	1817	0.99
32.24	1827	1.08
32.03	1838	1.18
31.82	1848	1.28
31.60	1859	1.38
31.39	1869	1.48
31.18	1880	1.59
30.97	1890	1.70
30.76	1901	1.81
30.54	1911	1.93
30.33	1922	2.05
30.12	1932	2.17
29.91	1943	2.30
29.70	1953	2.42
29.48	1964	2.55
29.27	1974	2.68
29.06	1985	2.81
28.85	1995	2.93
28.64	2006	3.06
28.42	2016	3.18
28.21	2027	3.30
27.99	2037	3.42
27.78	2048	3.53
27.57	2058	3.63
27.35	2069	3.73
27.14	2079	3.81
26.93	2090	3.89
26.72	2100	3.95
26.51	2111	3.99
26.30	2121	4.01
26.08	2132	4.02
25.87	2142	3.99
25.66	2153	3.94
25.45	2163	3.85
25.24	2174	3.72
25.03	2184	3.56
24.81	2195	3.36
24.60	2205	3.12
24.39	2216	2.85
24.17	2226	2.55
23.96	2237	2.24
23.75	2247	1.93
23.54	2258	1.65
23.32	2268	1.38
23.11	2279	1.14
22.90	2289	0.92
22.69	2300	0.73
22.48	2310	0.55
22.26	2321	0.40
22.05	2331	0.26
21.84	2342	0.14
21.63	2352	0.03
21.42	2363	-0.06
21.20	2373	-0.15
20.99	2384	-0.22
20.78	2394	-0.29
20.57	2405	-0.35
20.36	2415	-0.40
20.14	2426	-0.45
19.93	2436	-0.49
19.72	2447	-0.53
19.51	2457	-0.56
19.30	2468	-0.59
19.09	2478	-0.63
18.87	2489	-0.65
18.66	2499	-0.67
18.45	2510	-0.69
18.24	2520	-0.72
18.03	2531	-0.73
17.82	2541	-0.75
17.60	2552	-0.77
17.39	2562	-0.78
17.18	2573	-0.79
16.97	2583	-0.81
16.76	2594	-0.82
16.55	2604	-0.83
16.34	2615	-0.84
16.12	2625	-0.85
15.91	2636	-0.86
15.70	2646	-0.87
15.49	2657	-0.88
15.28	2667	-0.89
15.07	2678	-0.90
14.86	2688	-0.91
14.65	2699	-0.91
14.44	2709	-0.92
14.23	2720	-0.93
14.02	2730	-0.94
13.81	2741	-0.94
13.60	2751	-0.95
13.39	2762	-0.96
13.18	2772	-0.97
12.97	2783	-0.97
12.76	2793	-0.98
12.55	2804	-0.98
12.34	2814	-0.99
12.13	2825	-0.99
11.92	2835	-1.00
11.71	2846	-1.00
11.50	2856	-1.01
11.30	2867	-1.01
11.09	2877	-1.01
10.88	2888	-1.01
10.67	2898	-1.01
10.46	2909	-1.01
10.26	2919	-1.00
10.05	2930	-1.00
9.85	2940	-0.99
9.64	2951	-0.99
9.43	2961	-0.99
9.23	2972	-0.99
9.03	2982	-0.98
8.83	2993	-0.98
8.70	3000	-0.97

File: SM_EC-EC_c1.txt
 SM_EC_EC
Creation Date : 12/21/2018 12:43:14 PM
User : PSCM

HeatFlow :
 Initial Mass : 0 mg
 Molar Mass : N/A

Index Time (s)   Furnace Temperature (Â°C) HeatFlow (mW)
1     0          82.9646                -0.213271
75    22.2       84.4877                -0.188277
149   44.4       84.4277                  -0.114949
223   66.6       84.2109                0.100311
297   88.8       83.913                0.414301
371   111        83.5812                0.761891
445   133.2      83.2269                1.111771
519   155.4      82.86084                 1.434606
593   177.6      82.6144                1.720629
667   199.8      82.2321                1.958132
741   222        81.8487                2.155873
815   244.2      81.463                2.304719
889   266.4      81.0707                2.429861
963   288.6      80.6719                2.523994
1037  310.8      80.2758                2.600428
1111  333        79.8794                2.660762
1185  355.2      79.4842                2.710474
1259  377.4      79.0926                2.743797
1333  399.6      78.7014                2.75993
1407  421.8      78.3042                2.768532
1481  444        77.9159                2.773617
1555  466.2      77.5203                2.779196
1629  488.4      77.1414                2.779541
1703  510.6      76.7498                2.775369
1777  532.8      76.3593                2.784606
1851  555        75.9719                2.779014
1925  577.2      75.586                2.782967
1999  599.4      75.1991                2.801801
2073  621.6      74.8165                2.803102
2147  643.8      74.4335                2.80021
2221  666        74.0524                2.795512
2295  688.2      73.6685                2.792355
2369  710.4      73.2809                2.792747
2443  732.6      72.8942                2.793427
2517  754.8      72.5046                2.796603
2591  777        72.1232                2.795453
2665  799.2      71.7327                2.793273
2739  821.4      71.3481                2.792729
2813  843.6      70.9563                2.794074
2887  865.8      70.5818                2.790049
2961  888        70.1941                2.792479
3035  910.2      69.805                2.790882
3109  932.4      69.4179                2.794606
3183  954.6      69.0345                2.791808
3257  976.8      68.6509                2.794122
3331  999        68.2675                2.794877
3405  1021.2     67.889                2.794641
3479  1043.4     67.5072                2.793003
3553  1065.6     67.1247                2.791411
3627  1087.8     66.7351                2.793474
3701  1110       66.3505                2.794858
3775  1132.2     65.9595                2.796223
3849  1154.4     65.5792                2.796591
3923  1176.6     65.189                2.794469
3997  1198.8     64.8051                2.790983
4071  1221       64.4164                2.79403
4145  1243.2     64.04313                 2.791116
4219  1265.4     63.6544                2.790143
4293  1287.6     63.26533                 2.788391
4367  1309.8     62.8775                2.791448
4441  1332       62.4954                2.78937
4515  1354.2     62.1162                2.787738
4589  1376.4     61.7275                2.784726
4663  1398.6     61.3484                2.785441
4737  1420.8     60.9691                2.785848
4811  1443       60.5845                2.785129
4885  1465.2     60.1956                2.78389
4959  1487.4     59.8112                2.785747
5033  1509.6     59.4214                2.785098
5107  1531.8     59.0432                2.784654
5181  1554       58.6513                2.782346
5255  1576.2     58.2698                2.77908
5329  1598.4     57.8785                2.783545
5403  1620.6     57.50504                 2.779873
5477  1642.8     57.1149                2.776946
5551  1665       56.7297                2.778141
5625  1687.2     56.3421                2.781397
5699  1709.4     55.9587                2.782645
5773  1731.6     55.5762                2.782846
5847  1753.8     55.1917                2.78339
5921  1776       54.8134                2.783142
5995  1798.2     54.4322                2.784174
6069  1820.4     54.05156                 2.783062
6143  1842.6     53.6628                2.782002
6217  1864.8     53.2769                2.784233
6291  1887       52.8877                2.785655
6365  1909.2     52.5056                2.786091
6439  1931.4     52.1189                2.786072
6513  1953.6     51.7346                2.782635
6587  1975.8     51.3436                2.784153
6661  1998       50.9698                2.780742
6735  2020.2     50.5837                2.780814
6809  2042.4     50.2                2.781664
6883  2064.6     49.809                2.783908
6957  2086.8     49.4273                2.784682
7031  2109       49.0414                2.788659
7105  2131.2     48.6617                2.78342
7179  2153.4     48.2797                2.783346
7253  2175.6     47.8983                2.786758
7327  2197.8     47.5142                  2.786763
7401  2220       47.1319                2.788587
7475  2242.2     46.7475                2.790189
7549  2264.4     46.359                2.795239
7623  2286.6     45.9754                2.797408
7697  2308.8     45.5868                2.794635
7771  2331       45.2082                2.794397
7845  2353.2     44.8157                2.796098
7919  2375.4     44.436                2.793757
7993  2397.6     44.0469                2.794835
8067  2419.8     43.6709                2.793999
8141  2442       43.28389                 2.798342
8215  2464.2     42.8981                2.796807
8289  2486.4     42.5102                2.799284
8363  2508.6     42.1212                2.797844
8437  2530.8     41.7473                2.796958
8511  2553       41.3636                2.800524
8585  2575.2     40.9809                2.800021
8659  2597.4     40.5943                2.800184
8733  2619.6     40.2131                2.803189
8807  2641.8     39.8311                2.804865
8881  2664       39.4434                2.803951
8955  2686.2     39.05509                 2.801641
9029  2708.4     38.6723                2.798662
9103  2730.6     38.2876                2.801594
9177  2752.8     37.906                2.798322
9251  2775       37.5108                2.79608
9325  2797.2     37.1331                2.798127
9399  2819.4     36.7438                2.800987
9473  2841.6     36.3703                2.800486
9547  2863.8     35.9833                2.801553
9621  2886       35.5944                2.797766
9695  2908.2     35.2113                2.797983
9769  2930.4     34.8258                2.799148
9843  2952.6     34.44458                 2.799933
9917  2974.8     34.0589                2.801187
9991  2997       33.6748                2.802449
10065 3019.2     33.2987                2.803073
10139 3041.4     32.9181                2.80394
10213 3063.6     32.5282                2.802961
10287 3085.8     32.1448                2.804058
10361 3108       31.7569                2.80375
10435 3130.2     31.37369                 2.801545
10509 3152.4     30.9848                2.802058
10583 3174.6     30.6044                2.800667
10657 3196.8     30.2135                2.804972
10731 3219       29.8354                2.80742
10805 3241.2     29.446                2.806702
10879 3263.4     29.0698                2.80776
10953 3285.6     28.6843                2.80598
11027 3307.8     28.2988                2.807781
11101 3330       27.9148                2.809212
11175 3352.2     27.52516                 2.811399
11249 3374.4     27.1398                2.813241
11323 3396.6     26.766                2.81411
11397 3418.8     26.3819                2.813194
11471 3441       25.993                2.811049
11545 3463.2     25.6163                2.810799
11619 3485.4     25.2348                2.810267
11693 3507.6     24.8509                2.806923
11767 3529.8     24.4605                2.80686
11841 3552       24.0782                2.807985
11915 3574.2     23.6892                2.808592
11989 3596.4     23.31115                 2.811652
12063 3618.6     22.9218                2.812181
12137 3640.8     22.5368                2.810518
12211 3663       22.1505                2.810748
12285 3685.2     21.7759                2.810697
12359 3707.4     21.387                2.812122
12433 3729.6     21.00598                 2.812368
12507 3751.8     20.6182                2.814348
12581 3774       20.23595                 2.816684
12655 3796.2     19.8526                2.816229
12729 3818.4     19.463                2.815515
12803 3840.6     19.09355                 2.81636
12877 3862.8     18.7053                2.815131
12951 3885       18.3255                2.812929
13025 3907.2     17.9373                2.812932
13099 3929.4     17.5612                2.813368
13173 3951.6     17.1762                2.815919
13247 3973.8     16.7928                2.815453
13321 3996       16.4046                2.81624
13395 4018.2     16.023                2.814387
13469 4040.4     15.6382                2.816292
13543 4062.6     15.26185                 2.815815
13617 4084.8     14.8703                2.814667
13691 4107       14.4907                2.814305
13765 4129.2     14.105                2.815802
13839 4151.4     13.73263                 2.815603
13913 4173.6     13.3517                2.814321
13987 4195.8     12.959                2.811212
14061 4218       12.5832                2.809515
14135 4240.2     12.1971                2.806755
14209 4262.4     11.8207                2.803384
14283 4284.6     11.4369                2.800936
14357 4306.8     11.0533                2.798949
14431 4329       10.6792                2.796942
14505 4351.2     10.3035                2.791305
14579 4373.4     9.92169                  2.784341
14653 4395.6     9.541066                 2.776673
14727 4417.8     9.162477                 2.769605
14801 4440       8.790549                 2.760044
14875 4462.2     8.413093                 2.744873
14949 4484.4     8.037025                 2.727115
15001 4500       7.776317                 2.709003